{
  "rules": [
    {
      "applicability_conditions": [
        "3.2.10 Original or Prior Coding Variables Keeping original coding variables is not common, but there are a couple of instances where it might be helpful: \u2022 When a study is mapped to one version of a mapping dictionary for an interim analysis and another for final analysis \u2022 When studies using different versions of a mapping dictionary are pooled together for an integrated analysis Because the dictionary-coded values may change with each version, counts for study tables can differ between versions for the same study."
      ],
      "classification": "STANDARD_GUIDED",
      "classification_status": "RESOLVED",
      "conformance_metadata": null,
      "dataset_scope": [],
      "evidence_locator": {
        "duplicate_locators": [],
        "extraction_timestamp": "2026-08-10T08:11:23+00:00",
        "page": 24,
        "parser_compiler_version": "m3r-1",
        "section": null,
        "source_binding_status": "SOURCE_BOUND",
        "source_excerpt": "3.2.10 Original or Prior Coding Variables Keeping original coding variables is not common, but there are a couple of instances where it might be helpful: \u2022 When a study is mapped to one version of a mapping dictionary for an interim analysis and another for final analysis \u2022 When studies using different versions of a mapping dictionary are pooled together for an integrated analysis Because the dictionary-coded valu..."
      },
      "exact_source_excerpt": "3.2.10 Original or Prior Coding Variables Keeping original coding variables is not common, but there are a couple of instances where it might be helpful: \u2022 When a study is mapped to one version of a mapping dictionary for an interim analysis and another for final analysis \u2022 When studies using different versions of a mapping dictionary are pooled together for an integrated analysis Because the dictionary-coded values may change with each version, counts for study tables can differ between versions for the same study. Therefore, keeping the original variables provides traceability to original (or prior) analysis(es).",
      "excluded_reason": null,
      "expected_outputs": [],
      "extraction_status": "CANDIDATE_RULE",
      "grain": null,
      "keys": [],
      "local_relative_source_path": "ADaM_OCCDS_Implementation_Guide v1.1.pdf",
      "normalized_atomic_requirement": "3.2.10 Original or Prior Coding Variables Keeping original coding variables is not common, but there are a couple of instances where it might be helpful: \u2022 When a study is mapped to one version of a mapping dictionary for an interim analysis and another for final analysis \u2022 When studies using different versions of a mapping dictionary are pooled together...",
      "normative_strength": "GUIDED",
      "official_url": "https://www.cdisc.org/system/files/members/standard/foundational/ADaM_OCCDS_Implementation_Guide%20v1.1.pdf",
      "permitted_variations": [
        "3.2.10 Original or Prior Coding Variables Keeping original coding variables is not common, but there are a couple of instances where it might be helpful: \u2022 When a study is mapped to one version of a mapping dictionary for an interim analysis and another for final analysis \u2022 When studies using different versions of a mapping dictionary are pooled together for an integrated analysis Because the dictionary-coded valu..."
      ],
      "prohibited_behavior": [],
      "required_behavior": "3.2.10 Original or Prior Coding Variables Keeping original coding variables is not common, but there are a couple of instances where it might be helpful: \u2022 When a study is mapped to one version of a mapping dictionary for an interim analysis and another for final analysis \u2022 When studies using different versions of a mapping dictionary are pooled together...",
      "required_inputs": [],
      "review_status": "CANDIDATE",
      "rule_id": "adam-occds:04218c8c1bcaa6de",
      "rule_type": "OPERATIVE_RULE",
      "scope": {
        "candidate_kind": "variable_requirement",
        "dataset_scope": [],
        "datasets": [],
        "structure_scope": [],
        "variable_scope": [],
        "variables": []
      },
      "semantic_reconstruction_status": "CANDIDATE_RECONSTRUCTED",
      "source_hash": "e5e510c491cad804236f89cc1bada6cca0f4b2f31c7dc84022d4197886fa8a1c",
      "source_section_classification": "OPERATIVE_RULE",
      "standard_id": "adam-occds",
      "standard_name": "ADaM OCCDS Implementation Guide",
      "standard_version": "1.1",
      "structure_scope": [],
      "validation_requirement": null,
      "validation_requirements": [],
      "variable_scope": []
    },
    {
      "applicability_conditions": [
        "All rights reserved Page 20 2021-11-29 Variable Name Variable Label Type Codelista Controlled Terms Core SubClass ADVERSE EVENT Core CDISC Notes TRTEMwFL Treatment Emergent Analysis w Flag Char Y Perm Perm This variable is used if there are other analysis needs (e.g., different cut-offs) where treatment emergence is a key feature of the analysis.",
        "AETRTEM Treatment Emergent Flag Char (NY) Perm Cond Treatment-emergent flag from SDTM, if available.",
        "Derivation: SUPPAE.QVAL where QNAM=\"AETRTEM\" TRTEMFL may differ from AETRTEM due to different definitions, date imputation, and other analysis rules.",
        "Example derivation: If ADSL.TRTSDT <= ASTDT <= ADSL.TRTEDT then ONTRTFL = \"Y\" This variable is conditional on whether the concept of on treatment is a feature of the study and used in analysis.",
        "ONTRxxFL On Treatment Period xx Flag Char Y Perm Perm This variable is used if there are multiple periods where on treatment is a key feature of the analysis for each period.",
        "ONTRTwFL On Treatment Record w Flag Char Y Perm Perm This variable is used if there are other analysis needs (e.g., different cut-offs) where on treatment is a key feature of the analysis.",
        "Table 3.2.5.5 Adverse Event and Concomitant Medications Indicator Variables Variable Name Variable Label Type Codelist Controlled Terms Core SubClass ADVERSE EVENT Core CDISC Notes PREFL Pre-treatment Flag Char Y Cond Cond Character indicator of whether the observation occurred before the subject started treatment Example derivation: If ASTDT < ADSL.TRTSDT then PREFL=\"Y\" This variable is conditional on whether the concept of pre-treatment is a feature of the study and used in analysis.",
        "FUPFL Follow-up Flag Char Y Cond Cond Character indicator of whether the observation occurred while the subject was on follow-up Example derivation: If ASTDT > ADSL.TRTEDT then FUPFL=\"Y\" This variable is conditional on whether the concept of follow-up is a feature of the study and used in analysis."
      ],
      "classification": "STANDARD_GUIDED",
      "classification_status": "RESOLVED",
      "conformance_metadata": null,
      "dataset_scope": [
        "ADSL"
      ],
      "evidence_locator": {
        "duplicate_locators": [],
        "extraction_timestamp": "2026-08-10T08:11:23+00:00",
        "page": 20,
        "parser_compiler_version": "m3r-1",
        "section": null,
        "source_binding_status": "SOURCE_BOUND",
        "source_excerpt": "CDISC ADaM Structure for Occurrence Data (OCCDS) Implementation Guide (1.1 Final) \u00a9 2021 Clinical Data Interchange Standards Consortium, Inc. All rights reserved Page 20 2021-11-29 Variable Name Variable Label Type Codelista Controlled Terms Core SubClass ADVERSE EVENT Core CDISC Notes TRTEMwFL Treatment Emergent Analysis w Flag Char Y Perm Perm This variable is used if there are other analysis needs (e.g., differ..."
      },
      "exact_source_excerpt": "CDISC ADaM Structure for Occurrence Data (OCCDS) Implementation Guide (1.1 Final) \u00a9 2021 Clinical Data Interchange Standards Consortium, Inc. All rights reserved Page 20 2021-11-29 Variable Name Variable Label Type Codelista Controlled Terms Core SubClass ADVERSE EVENT Core CDISC Notes TRTEMwFL Treatment Emergent Analysis w Flag Char Y Perm Perm This variable is used if there are other analysis needs (e.g., different cut-offs) where treatment emergence is a key feature of the analysis. If TREMwFL is included, TRTEMFL is defined as the overall treatment-emergent flag. AETRTEM Treatment Emergent Flag Char (NY) Perm Cond Treatment-emergent flag from SDTM, if available. See SDTMIG v3.3, Appendix C2, Supplemental Qualifiers Name Codes, for more information. Derivation: SUPPAE.QVAL where QNAM=\"AETRTEM\" TRTEMFL may differ from AETRTEM due to different definitions, date imputation, and other analysis rules. Including AETRTEM in addition to TRTEMFL will add traceability. For SubClass ADVERSE EVENT, conditional on whether the AETRTEM variable is in the SDTM AE dataset and populated aCodelists in parenthesis are the names of CDISC Controlled Terminology. Table 3.2.5.4 Concomitant Medications Indicator Variables Variable Name Variable Label Type Codelist Controlled Terms Core SubClass ADVERSE EVENT Core CDISC Notes ONTRTFL On Treatment Record Flag Char Y Cond Perm Character indicator of whether the observation occurred while the subject was on treatment. A codelist of Y, N, null may be used as described in ADaMIG Section 3.3.8, Indicator Variables for BDS Datasets. Example derivation: If ADSL.TRTSDT <= ASTDT <= ADSL.TRTEDT then ONTRTFL = \"Y\" This variable is conditional on whether the concept of on treatment is a feature of the study and used in analysis. ONTRxxFL On Treatment Period xx Flag Char Y Perm Perm This variable is used if there are multiple periods where on treatment is a key feature of the analysis for each period. If ONTRxxFL is included, ONTRTFL is defined as the overall on-treatment flag. ONTRTwFL On Treatment Record w Flag Char Y Perm Perm This variable is used if there are other analysis needs (e.g., different cut-offs) where on treatment is a key feature of the analysis. If ONTRTwFL is included, ONTRTFL is defined as the overall on-treatment flag. Table 3.2.5.5 Adverse Event and Concomitant Medications Indicator Variables Variable Name Variable Label Type Codelist Controlled Terms Core SubClass ADVERSE EVENT Core CDISC Notes PREFL Pre-treatment Flag Char Y Cond Cond Character indicator of whether the observation occurred before the subject started treatment Example derivation: If ASTDT < ADSL.TRTSDT then PREFL=\"Y\" This variable is conditional on whether the concept of pre-treatment is a feature of the study and used in analysis. FUPFL Follow-up Flag Char Y Cond Cond Character indicator of whether the observation occurred while the subject was on follow-up Example derivation: If ASTDT > ADSL.TRTEDT then FUPFL=\"Y\" This variable is conditional on whether the concept of follow-up is a feature of the study and used in analysis.",
      "excluded_reason": null,
      "expected_outputs": [
        "ADSL",
        "ADSL.TRTEDT",
        "ADSL.TRTSDT"
      ],
      "extraction_status": "CANDIDATE_RULE",
      "grain": null,
      "keys": [],
      "local_relative_source_path": "ADaM_OCCDS_Implementation_Guide v1.1.pdf",
      "normalized_atomic_requirement": "Derivation: SUPPAE.QVAL where QNAM=\"AETRTEM\" TRTEMFL may differ from AETRTEM due to different definitions, date imputation, and other analysis rules.",
      "normative_strength": "GUIDED",
      "official_url": "https://www.cdisc.org/system/files/members/standard/foundational/ADaM_OCCDS_Implementation_Guide%20v1.1.pdf",
      "permitted_variations": [
        "Derivation: SUPPAE.QVAL where QNAM=\"AETRTEM\" TRTEMFL may differ from AETRTEM due to different definitions, date imputation, and other analysis rules.",
        "A codelist of Y, N, null may be used as described in ADaMIG Section 3.3.8, Indicator Variables for BDS Datasets."
      ],
      "prohibited_behavior": [],
      "required_behavior": "Derivation: SUPPAE.QVAL where QNAM=\"AETRTEM\" TRTEMFL may differ from AETRTEM due to different definitions, date imputation, and other analysis rules.",
      "required_inputs": [],
      "review_status": "CANDIDATE",
      "rule_id": "adam-occds:049425351a5756e1",
      "rule_type": "CONTROLLED_TERMINOLOGY",
      "scope": {
        "candidate_kind": "controlled_terminology",
        "dataset_scope": [
          "ADSL"
        ],
        "datasets": [
          "ADSL"
        ],
        "structure_scope": [
          "BASIC_DATA_STRUCTURE",
          "OCCURRENCE_DATA_STRUCTURE"
        ],
        "variable_scope": [
          "TRTEDT",
          "TRTSDT"
        ],
        "variables": [
          "TRTEDT",
          "TRTSDT"
        ]
      },
      "semantic_reconstruction_status": "CANDIDATE_RECONSTRUCTED",
      "source_hash": "e5e510c491cad804236f89cc1bada6cca0f4b2f31c7dc84022d4197886fa8a1c",
      "source_section_classification": "CONTROLLED_TERMINOLOGY",
      "standard_id": "adam-occds",
      "standard_name": "ADaM OCCDS Implementation Guide",
      "standard_version": "1.1",
      "structure_scope": [
        "BASIC_DATA_STRUCTURE",
        "OCCURRENCE_DATA_STRUCTURE"
      ],
      "validation_requirement": null,
      "validation_requirements": [],
      "variable_scope": [
        "TRTEDT",
        "TRTSDT"
      ]
    },
    {
      "applicability_conditions": [
        "Because multiple SDTM domains are stacked together, SRCSEQ and SRCDOM are used to point to the domain and record where the data came from."
      ],
      "classification": "STANDARD_REQUIRED",
      "classification_status": "RESOLVED",
      "conformance_metadata": null,
      "dataset_scope": [
        "ADSL"
      ],
      "evidence_locator": {
        "duplicate_locators": [],
        "extraction_timestamp": "2026-08-10T08:11:23+00:00",
        "page": 53,
        "parser_compiler_version": "m3r-1",
        "section": null,
        "source_binding_status": "SOURCE_BOUND",
        "source_excerpt": "CDISC ADaM Structure for Occurrence Data (OCCDS) Implementation Guide (1.1 Final) \u00a9 2021 Clinical Data Interchange Standards Consortium, Inc. All rights reserved Page 53 2021-11-29 Variable Name Variable Label Variable Type Codelists Controlled Terms Source Derivation NULL. If either the start datetime of the adverse event or the start datetime of treatment is missing, and both the start date of the adverse event..."
      },
      "exact_source_excerpt": "CDISC ADaM Structure for Occurrence Data (OCCDS) Implementation Guide (1.1 Final) \u00a9 2021 Clinical Data Interchange Standards Consortium, Inc. All rights reserved Page 53 2021-11-29 Variable Name Variable Label Variable Type Codelists Controlled Terms Source Derivation NULL. If either the start datetime of the adverse event or the start datetime of treatment is missing, and both the start date of the adverse event and treatment are present and and populated, and start date of adverse event is prior to start date of treatment (MISSING<ASTDT<TRTSDT), then set TRTEMFL to NULL. If start date of adverse event is missing, but end datetime or end date is present and prior to start datetime or start date of treatment, then set TRTEMFL to NULL. 10.3 Sample ADaM Data - Example 7 Table 10.3.1 is an illustration of the adverse events analysis dataset (ADAECE) defined in Section 10.2, Sample ADaM Variable Metadata - Example 7. Key points to note in the example are: 1. Only clinical events (CE) that occur for subject ABC-001 and are considered to be candidates for adverse events are included in ADAECE. For example, the actual hypoglycemic episodes (Table 10.1.2, rows 1 and 9) and corresponding symptoms (rows 2-4 and 12-14, respectively) are copied into ADAECE in Table 10.3.1 as rows 1-4 and 5-8. Note that symptoms that did not occur (OCCUR = \"N\"), such as cognitive impairment on row 5, were not copied into ADAECE. 2. Because the study is a parallel design, the subject-level treatment variable TRT01A is kept from ADSL to be used for the analysis rather than the creation of row-level treatment variable TRTA, as is compliant with ADAMIG Version 1.2. 3. Because multiple SDTM domains are stacked together, SRCSEQ and SRCDOM are used to point to the domain and record where the data came from. See Section 3.2.2, Identifier Variables, for a discussion of identifier variables and traceability in OCCDS. 4. As seen in preceding examples, many variables are copied directly into the OCCDS structure from SDTM domains without modification. With stacking, the U* variable allows users to preserve the copy feature yet stack the same type data into the same column. U* can only be used for a direct copy (the U* indicates \u201cunmodified\u201d). Any changes in type, casing, or harmonization requires the creation of A* variables, as seen with ARELGR1. See Section 3.2.11, User-specified Variable Naming Conventions, for a discussion about use of the A* and U* prefixes. 5. ACAT1 is populated to indicate type of data. CEGRPID could also be included to link symptoms together, but was not required for analysis. 6. Because this is just an example, not all variables needed for analysis have been included. Table 10.3.1 Sample ADaM Variable Metadataa Row STUDYID USUBJID SAFFL TRT01A TRTSDT TRTSDTM SRCDOM SRCSEQ UTERM UDECOD ACAT1 CEPRESP UBODSYS USER UREL ARELGR1 UTOXGR UACN UOUT USTDTC UENDTC ASTDT ASTDTM TRTEMFL 1 ABC ABC-001 Y SOC + SD 24OCT2017 24OCT17:10:05:00 CE 1 PROBABLE SYMPTOMATIC HYPOGLYCEMIC EVENT Hypoglycaemia HYPO EVENTS Hepatobiliary disorders N RELATED Related 1 DOSE NOT CHANGED RECOVERED/RESOLVED 2017-10- 25T07:30 2017-10- 25T08:10 25OCT2017 25OCT17:07:30:00 Y 2 ABC ABC-001 Y SOC + SD 24OCT2017 24OCT17:10:05:00 CE 2 SWEATING Hyperhidrosis HYPO EVENTS Y General disorders and administration site conditions N RELATED Related 1 DOSE NOT CHANGED RECOVERED/RESOLVED 2017-10- 25T07:20 2017-10- 25T08:05 25OCT2017 25OCT17:07:20:00 Y 3 ABC ABC-001 Y SOC + SD 24OCT2017 24OCT17:10:05:00 CE 3 TREMORS/TREMBLING Tremor HYPO EVENTS Y Nervous system disorders N RELATED Related 1 DOSE NOT CHANGED RECOVERED/RESOLVED 2017-10- 25T07:10 2017-10- 25T08:05 25OCT2017 25OCT17:07:10:00 Y 4 ABC ABC-001 Y SOC + SD 24OCT2017 24OCT17:10:05:00 CE 4 DIZZINESS Dizziness HYPO EVENTS Y Nervous system disorders N RELATED Related 2 DOSE NOT CHANGED RECOVERED/RESOLVED 2017-10- 25T07:05 2017-10- 25T08:05 25OCT2017 25OCT17:07:05:00 Y 5 ABC ABC-001 Y SOC + SD 24OCT2017 24OCT17:10:05:00 CE 9 DOCUMENTED SYMPTOMATIC HYPOGLYCEMIC EVENT Hypoglycaemia HYPO EVENTS Hepatobiliary disorders Y POSSIBLY RELATED Related 3 DRUG INTERRUPTED RECOVERED/RESOLVED 2017-11- 02T17:35 2017-11- 02T18:20 02NOV2017 02NOV17:17:35:00 Y 6 ABC ABC-001 Y SOC + SD 24OCT2017 24OCT17:10:05:00 CE 12 DIZZINESS Dizziness HYPO EVENTS Y Nervous system disorders N POSSIBLY RELATED Related 2 DRUG INTERRUPTED RECOVERED/RESOLVED 2017-11- 02T17:25 2017-11- 02T18:10 02NOV2017 02NOV17:17:25:00 Y 7 ABC ABC-001 Y SOC + SD 24OCT2017 24OCT17:10:05:00 CE 13 COGNITIVE IMPAIRMENT Cognitive Disorder HYPO EVENTS Y Psychiatric disorders Y POSSIBLY RELATED Related 3 DRUG INTERRUPTED RECOVERED/RESOLVED 2017-11- 02T17:40 2017-11- 02T18:05 02NOV2017 02NOV17:17:40:00 Y 8 ABC ABC-001 Y SOC + SD 24OCT2017 24OCT17:10:05:00 CE 14 LOSS OF CONSCIOUSNESS Loss of Consciousness HYPO EVENTS Y Nervous system disorders Y POSSIBLY RELATED Related 3 DRUG INTERRUPTED RECOVERED/RESOLVED 2017-11- 02T17:45 2017-11- 02T18:01 02NOV2017 02NOV17:17:45:00 Y 9 ABC ABC-001 Y SOC + SD 24OCT2017 24OCT17:10:05:00 AE 1 HEADACHE Headache ADVERSE EVENTS Nervous system disorders N NOT RELATED Not Related 2 DOSE NOT CHANGED RECOVERED/RESOLVED 2017-10- 21 2017-10- 23 21OCT2017",
      "excluded_reason": null,
      "expected_outputs": [
        "ADSL",
        "ADSL.ABC",
        "ADSL.ACAT1",
        "ADSL.ADAECE",
        "ADSL.ADAMIG",
        "ADSL.ADVERSE",
        "ADSL.ARELGR1",
        "ADSL.ASTDT",
        "ADSL.ASTDTM",
        "ADSL.CEGRPID",
        "ADSL.CEPRESP",
        "ADSL.CHANGED",
        "ADSL.COGNITIVE",
        "ADSL.CONSCIOUSNESS",
        "ADSL.DIZZINESS",
        "ADSL.DOCUMENTED",
        "ADSL.DOSE",
        "ADSL.DRUG",
        "ADSL.EVENT",
        "ADSL.EVENTS",
        "ADSL.HEADACHE",
        "ADSL.HYPO",
        "ADSL.HYPOGLYCEMIC",
        "ADSL.IMPAIRMENT",
        "ADSL.INTERRUPTED",
        "ADSL.LOSS",
        "ADSL.MISSING",
        "ADSL.NOT",
        "ADSL.NULL",
        "ADSL.OCCUR",
        "ADSL.POSSIBLY",
        "ADSL.PROBABLE",
        "ADSL.RECOVERED",
        "ADSL.RELATED",
        "ADSL.RESOLVED",
        "ADSL.SAFFL",
        "ADSL.SOC",
        "ADSL.SRCDOM",
        "ADSL.SRCSEQ",
        "ADSL.STUDYID",
        "ADSL.SWEATING",
        "ADSL.SYMPTOMATIC",
        "ADSL.TREMBLING",
        "ADSL.TREMORS",
        "ADSL.TRT01A",
        "ADSL.TRTA",
        "ADSL.TRTEMFL",
        "ADSL.TRTSDT",
        "ADSL.TRTSDTM",
        "ADSL.UACN",
        "ADSL.UBODSYS",
        "ADSL.UDECOD",
        "ADSL.UENDTC",
        "ADSL.UOUT",
        "ADSL.UREL",
        "ADSL.USER",
        "ADSL.USTDTC",
        "ADSL.USUBJID",
        "ADSL.UTERM",
        "ADSL.UTOXGR"
      ],
      "extraction_status": "CANDIDATE_RULE",
      "grain": null,
      "keys": [
        "OCCDS"
      ],
      "local_relative_source_path": "ADaM_OCCDS_Implementation_Guide v1.1.pdf",
      "normalized_atomic_requirement": "CEGRPID could also be included to link symptoms together, but was not required for analysis.",
      "normative_strength": "REQUIRED",
      "official_url": "https://www.cdisc.org/system/files/members/standard/foundational/ADaM_OCCDS_Implementation_Guide%20v1.1.pdf",
      "permitted_variations": [
        "Only clinical events (CE) that occur for subject ABC-001 and are considered to be candidates for adverse events are included in ADAECE.",
        "U* can only be used for a direct copy (the U* indicates \u201cunmodified\u201d)."
      ],
      "prohibited_behavior": [],
      "required_behavior": "CEGRPID could also be included to link symptoms together, but was not required for analysis.",
      "required_inputs": [],
      "review_status": "CANDIDATE",
      "rule_id": "adam-occds:097b6f95e1611535",
      "rule_type": "CONTROLLED_TERMINOLOGY",
      "scope": {
        "candidate_kind": "controlled_terminology",
        "dataset_scope": [
          "ADSL"
        ],
        "datasets": [
          "ADSL"
        ],
        "structure_scope": [
          "OCCURRENCE_DATA_STRUCTURE"
        ],
        "variable_scope": [
          "ABC",
          "ACAT1",
          "ADAECE",
          "ADAMIG",
          "ADVERSE",
          "ARELGR1",
          "ASTDT",
          "ASTDTM",
          "CEGRPID",
          "CEPRESP",
          "CHANGED",
          "COGNITIVE",
          "CONSCIOUSNESS",
          "DIZZINESS",
          "DOCUMENTED",
          "DOSE",
          "DRUG",
          "EVENT",
          "EVENTS",
          "HEADACHE",
          "HYPO",
          "HYPOGLYCEMIC",
          "IMPAIRMENT",
          "INTERRUPTED",
          "LOSS",
          "MISSING",
          "NOT",
          "NULL",
          "OCCUR",
          "POSSIBLY",
          "PROBABLE",
          "RECOVERED",
          "RELATED",
          "RESOLVED",
          "SAFFL",
          "SOC",
          "SRCDOM",
          "SRCSEQ",
          "STUDYID",
          "SWEATING",
          "SYMPTOMATIC",
          "TREMBLING",
          "TREMORS",
          "TRT01A",
          "TRTA",
          "TRTEMFL",
          "TRTSDT",
          "TRTSDTM",
          "UACN",
          "UBODSYS",
          "UDECOD",
          "UENDTC",
          "UOUT",
          "UREL",
          "USER",
          "USTDTC",
          "USUBJID",
          "UTERM",
          "UTOXGR"
        ],
        "variables": [
          "ABC",
          "ACAT1",
          "ADAECE",
          "ADAMIG",
          "ADVERSE",
          "ARELGR1",
          "ASTDT",
          "ASTDTM",
          "CEGRPID",
          "CEPRESP",
          "CHANGED",
          "COGNITIVE",
          "CONSCIOUSNESS",
          "DIZZINESS",
          "DOCUMENTED",
          "DOSE",
          "DRUG",
          "EVENT",
          "EVENTS",
          "HEADACHE",
          "HYPO",
          "HYPOGLYCEMIC",
          "IMPAIRMENT",
          "INTERRUPTED",
          "LOSS",
          "MISSING",
          "NOT",
          "NULL",
          "OCCUR",
          "POSSIBLY",
          "PROBABLE",
          "RECOVERED",
          "RELATED",
          "RESOLVED",
          "SAFFL",
          "SOC",
          "SRCDOM",
          "SRCSEQ",
          "STUDYID",
          "SWEATING",
          "SYMPTOMATIC",
          "TREMBLING",
          "TREMORS",
          "TRT01A",
          "TRTA",
          "TRTEMFL",
          "TRTSDT",
          "TRTSDTM",
          "UACN",
          "UBODSYS",
          "UDECOD",
          "UENDTC",
          "UOUT",
          "UREL",
          "USER",
          "USTDTC",
          "USUBJID",
          "UTERM",
          "UTOXGR"
        ]
      },
      "semantic_reconstruction_status": "CANDIDATE_RECONSTRUCTED",
      "source_hash": "e5e510c491cad804236f89cc1bada6cca0f4b2f31c7dc84022d4197886fa8a1c",
      "source_section_classification": "CONTROLLED_TERMINOLOGY",
      "standard_id": "adam-occds",
      "standard_name": "ADaM OCCDS Implementation Guide",
      "standard_version": "1.1",
      "structure_scope": [
        "OCCURRENCE_DATA_STRUCTURE"
      ],
      "validation_requirement": null,
      "validation_requirements": [],
      "variable_scope": [
        "ABC",
        "ACAT1",
        "ADAECE",
        "ADAMIG",
        "ADVERSE",
        "ARELGR1",
        "ASTDT",
        "ASTDTM",
        "CEGRPID",
        "CEPRESP",
        "CHANGED",
        "COGNITIVE",
        "CONSCIOUSNESS",
        "DIZZINESS",
        "DOCUMENTED",
        "DOSE",
        "DRUG",
        "EVENT",
        "EVENTS",
        "HEADACHE",
        "HYPO",
        "HYPOGLYCEMIC",
        "IMPAIRMENT",
        "INTERRUPTED",
        "LOSS",
        "MISSING",
        "NOT",
        "NULL",
        "OCCUR",
        "POSSIBLY",
        "PROBABLE",
        "RECOVERED",
        "RELATED",
        "RESOLVED",
        "SAFFL",
        "SOC",
        "SRCDOM",
        "SRCSEQ",
        "STUDYID",
        "SWEATING",
        "SYMPTOMATIC",
        "TREMBLING",
        "TREMORS",
        "TRT01A",
        "TRTA",
        "TRTEMFL",
        "TRTSDT",
        "TRTSDTM",
        "UACN",
        "UBODSYS",
        "UDECOD",
        "UENDTC",
        "UOUT",
        "UREL",
        "USER",
        "USTDTC",
        "USUBJID",
        "UTERM",
        "UTOXGR"
      ]
    },
    {
      "applicability_conditions": [
        "All rights reserved Page 24 2021-11-29 3.2.9 Standardized MedDRA Query Variables Standardized MedDRA Queries (SMQs; see https://www.meddra.org/standardised-meddra-queries)[4] are becoming increasingly common in clinical trial safety evaluations, particularly when known or suspected safety issues are associated with experimental compounds.",
        "Table 3.2.9.1 lists variables used to identify SMQs and CQs, where zz is replaced with a zero- padded 2-digit integer (01-99) for each SMQ or CQ of interest.",
        "It is recommended that ordering be consistent across studies within a development program, but it is recognized that there may be situations where this is not possible or practical.",
        "Therefore this variable could be blank for all records if no terms within the study were included in the SMQ.",
        "Conditional on whether CQ analysis is done Examples: \u201cDERMATOLOGICAL EVENTS\u201d \u201cCARDIAC EVENTS\u201d, \u201cIARS (INFUSION ASSOCIATED REACTIONS)\u201d ADECODy Analysis Dictionary- Derived Term y Char Perm Perm The terms used for the analysis when combining multiple customized query or multiple standardized MedDRA queries and the original MedDRA dictionary terms under 1 variable Although designed for MedDRA queries, this variable could be used for other OCCDS analysis needs."
      ],
      "classification": "STANDARD_GUIDED",
      "classification_status": "RESOLVED",
      "conformance_metadata": null,
      "dataset_scope": [],
      "evidence_locator": {
        "duplicate_locators": [],
        "extraction_timestamp": "2026-08-10T08:11:23+00:00",
        "page": 24,
        "parser_compiler_version": "m3r-1",
        "section": null,
        "source_binding_status": "SOURCE_BOUND",
        "source_excerpt": "CDISC ADaM Structure for Occurrence Data (OCCDS) Implementation Guide (1.1 Final) \u00a9 2021 Clinical Data Interchange Standards Consortium, Inc. All rights reserved Page 24 2021-11-29 3.2.9 Standardized MedDRA Query Variables Standardized MedDRA Queries (SMQs; see https://www.meddra.org/standardised-meddra-queries)[4] are becoming increasingly common in clinical trial safety evaluations, particularly when known or su..."
      },
      "exact_source_excerpt": "CDISC ADaM Structure for Occurrence Data (OCCDS) Implementation Guide (1.1 Final) \u00a9 2021 Clinical Data Interchange Standards Consortium, Inc. All rights reserved Page 24 2021-11-29 3.2.9 Standardized MedDRA Query Variables Standardized MedDRA Queries (SMQs; see https://www.meddra.org/standardised-meddra-queries)[4] are becoming increasingly common in clinical trial safety evaluations, particularly when known or suspected safety issues are associated with experimental compounds. In addition, customized queries (CQs) are often used to modify an SMQ or identify records of special interest. Table 3.2.9.1 lists variables used to identify SMQs and CQs, where zz is replaced with a zero- padded 2-digit integer (01-99) for each SMQ or CQ of interest. This ordering can be based on importance or some other producer-defined criteria. It is recommended that ordering be consistent across studies within a development program, but it is recognized that there may be situations where this is not possible or practical. Table 3.2.9.1 Standardized MedDRA Query Variables Variable Name Variable Label Type Codelist Controlled Terms Core SubClass ADVERSE EVENT Core CDISC Notes SMQzzNAM SMQ zz Name Char Cond Cond The Standardized MedDRA Query name. Would be blank for terms that are not in the SMQ. Therefore this variable could be blank for all records if no terms within the study were included in the SMQ. Conditional on whether SMQ analysis is done SMQzzCD SMQ zz Code Num Perm Perm The standardized MedDRA queries number code SMQzzSC SMQ zz Scope Char BROAD, NARROW Cond Cond The search strategy for SMQs can be narrow or broad. The preferred terms that are narrow in scope have high specificity for identifying events of interest, whereas the broad terms have high sensitivity. By definition, all narrow terms are also considered within the broad scope. Therefore, to summarize all broad terms, terms with either narrow or broad would be considered. Will be null for terms that do not meet the criteria. Conditional on whether SMQ analysis is done SMQzzSCN SMQ zz Scope (N) Num 1, 2 Perm Perm Will be null for terms that do not meet the criteria CQzzNAM Customized Query zz Name Char Cond Cond The CQ name or name of the adverse event of special interest category based on a grouping of terms. Would be blank for terms that are not in the CQ. Conditional on whether CQ analysis is done Examples: \u201cDERMATOLOGICAL EVENTS\u201d \u201cCARDIAC EVENTS\u201d, \u201cIARS (INFUSION ASSOCIATED REACTIONS)\u201d ADECODy Analysis Dictionary- Derived Term y Char Perm Perm The terms used for the analysis when combining multiple customized query or multiple standardized MedDRA queries and the original MedDRA dictionary terms under 1 variable Although designed for MedDRA queries, this variable could be used for other OCCDS analysis needs.",
      "excluded_reason": null,
      "expected_outputs": [],
      "extraction_status": "CANDIDATE_RULE",
      "grain": null,
      "keys": [],
      "local_relative_source_path": "ADaM_OCCDS_Implementation_Guide v1.1.pdf",
      "normalized_atomic_requirement": "It is recommended that ordering be consistent across studies within a development program, but it is recognized that there may be situations where this is not possible or practical.",
      "normative_strength": "GUIDED",
      "official_url": "https://www.cdisc.org/system/files/members/standard/foundational/ADaM_OCCDS_Implementation_Guide%20v1.1.pdf",
      "permitted_variations": [
        "This ordering can be based on importance or some other producer-defined criteria.",
        "It is recommended that ordering be consistent across studies within a development program, but it is recognized that there may be situations where this is not possible or practical.",
        "Conditional on whether SMQ analysis is done SMQzzCD SMQ zz Code Num Perm Perm The standardized MedDRA queries number code SMQzzSC SMQ zz Scope Char BROAD, NARROW Cond Cond The search strategy for SMQs can be narrow or broad."
      ],
      "prohibited_behavior": [],
      "required_behavior": "It is recommended that ordering be consistent across studies within a development program, but it is recognized that there may be situations where this is not possible or practical.",
      "required_inputs": [],
      "review_status": "CANDIDATE",
      "rule_id": "adam-occds:0abe3d71f8c8f737",
      "rule_type": "CONTROLLED_TERMINOLOGY",
      "scope": {
        "candidate_kind": "controlled_terminology",
        "dataset_scope": [],
        "datasets": [],
        "structure_scope": [
          "OCCURRENCE_DATA_STRUCTURE"
        ],
        "variable_scope": [
          "ADVERSE",
          "ASSOCIATED",
          "BROAD",
          "CARDIAC",
          "DERMATOLOGICAL",
          "EVENT",
          "EVENTS",
          "IARS",
          "INFUSION",
          "NARROW",
          "REACTIONS",
          "SMQ"
        ],
        "variables": [
          "ADVERSE",
          "ASSOCIATED",
          "BROAD",
          "CARDIAC",
          "DERMATOLOGICAL",
          "EVENT",
          "EVENTS",
          "IARS",
          "INFUSION",
          "NARROW",
          "REACTIONS",
          "SMQ"
        ]
      },
      "semantic_reconstruction_status": "CANDIDATE_RECONSTRUCTED",
      "source_hash": "e5e510c491cad804236f89cc1bada6cca0f4b2f31c7dc84022d4197886fa8a1c",
      "source_section_classification": "CONTROLLED_TERMINOLOGY",
      "standard_id": "adam-occds",
      "standard_name": "ADaM OCCDS Implementation Guide",
      "standard_version": "1.1",
      "structure_scope": [
        "OCCURRENCE_DATA_STRUCTURE"
      ],
      "validation_requirement": null,
      "validation_requirements": [],
      "variable_scope": [
        "ADVERSE",
        "ASSOCIATED",
        "BROAD",
        "CARDIAC",
        "DERMATOLOGICAL",
        "EVENT",
        "EVENTS",
        "IARS",
        "INFUSION",
        "NARROW",
        "REACTIONS",
        "SMQ"
      ]
    },
    {
      "applicability_conditions": [
        "In addition, if a time-to-event analysis is built off of concomitant medications, the flags provide a crucial link between the summary records in the TTE Basic Data Structure and the source of the records in ADCM."
      ],
      "classification": "STANDARD_REQUIRED",
      "classification_status": "RESOLVED",
      "conformance_metadata": null,
      "dataset_scope": [
        "ADSL"
      ],
      "evidence_locator": {
        "duplicate_locators": [],
        "extraction_timestamp": "2026-08-10T08:11:23+00:00",
        "page": 57,
        "parser_compiler_version": "m3r-1",
        "section": null,
        "source_binding_status": "SOURCE_BOUND",
        "source_excerpt": "CDISC ADaM Structure for Occurrence Data (OCCDS) Implementation Guide (1.1 Final) \u00a9 2021 Clinical Data Interchange Standards Consortium, Inc. All rights reserved Page 57 2021-11-29 Dataset Name Variable Name Variable Label Variable Type Codelist Controlled Terms Source Derivation ADCM TRTAN Actual Treatment (N) integer 1, 2 ADSL.TRT01AN Drug A = 1 Drug B = 2 ADCM TRTSDT Date of First Exposure to Treatment integer..."
      },
      "exact_source_excerpt": "CDISC ADaM Structure for Occurrence Data (OCCDS) Implementation Guide (1.1 Final) \u00a9 2021 Clinical Data Interchange Standards Consortium, Inc. All rights reserved Page 57 2021-11-29 Dataset Name Variable Name Variable Label Variable Type Codelist Controlled Terms Source Derivation ADCM TRTAN Actual Treatment (N) integer 1, 2 ADSL.TRT01AN Drug A = 1 Drug B = 2 ADCM TRTSDT Date of First Exposure to Treatment integer ADSL.TRTSDT ADCM TRTEDT Date of Last Exposure to Treatment integer ADSL.TRTEDT ADCM AGE Age integer ADSL.AGE ADCM AGEGR1 Pooled Age Group 1 text <65, >=65 ADSL.AGEGR1 ADCM SEX Sex text M, F ADSL.SEX ADCM RACE Race text ASIAN ADSL.RACE 11.3 Sample ADaM Data - Example 8 Table 11.3.1 is an illustration of the Concomitant Medications analysis dataset (ADCM) defined in Section 11.2, Sample ADaM Variable Metadata - Example 8. The ADCM dataset illustrated in this example was designed to support some standard subsets and/or classifications of concomitant medications. The example describes some of the key variables and records that would be included in the dataset. Key points to note in the example are: 1. The producer of the dataset chose to use the record-level actual treatment variable (TRTA) populated with the same value across all rows in the dataset rather than the subject-level treatment variable (TRT01A). For a parallel design, either TRTA or TRT01A could be used as the actual treatment identifier. The producer interpreted TRTA as the treatment associated with the record for analysis display purposes and populated the baseline records with treatment even though subjects had not yet received treatment at that time. 2. Variables such as CMSEQ, CMTRT, and CMSTDTC are copied in from the SDTM CM domain to provide data-point traceability. 3. Variables such as CMDECOD are copied in from the SDTM CM domain for analysis purposes. 4. ASTDT and AENDT are the CM timing variables used for analysis. Other timing variables (e.g., ASTDTF, AENDTF, CMSTDTC, CMENDTC, TRTSDT, TRTEDT) are supportive variables for metadata traceability. 5. The occurrence flags AOCCFL, AOCCPFL, AOCC01FL, AOCC02FL, and AOCC03FL are permissible, and not required. The main purpose of these flags is to facilitate data-point traceability between records in the dataset and unique counts in the summary displays. In addition, if a time-to-event analysis is built off of concomitant medications, the flags provide a crucial link between the summary records in the TTE Basic Data Structure and the source of the records in ADCM. 6. The core variables of AGE, AGEGR1, SEX, and RACE are included in ADCM to facilitate subgroup analyses.",
      "excluded_reason": null,
      "expected_outputs": [
        "ADSL",
        "ADSL.AGE",
        "ADSL.AGEGR1",
        "ADSL.RACE",
        "ADSL.SEX",
        "ADSL.TRT01AN",
        "ADSL.TRTEDT",
        "ADSL.TRTSDT"
      ],
      "extraction_status": "CANDIDATE_RULE",
      "grain": null,
      "keys": [],
      "local_relative_source_path": "ADaM_OCCDS_Implementation_Guide v1.1.pdf",
      "normalized_atomic_requirement": "The occurrence flags AOCCFL, AOCCPFL, AOCC01FL, AOCC02FL, and AOCC03FL are permissible, and not required.",
      "normative_strength": "REQUIRED",
      "official_url": "https://www.cdisc.org/system/files/members/standard/foundational/ADaM_OCCDS_Implementation_Guide%20v1.1.pdf",
      "permitted_variations": [],
      "prohibited_behavior": [],
      "required_behavior": "The occurrence flags AOCCFL, AOCCPFL, AOCC01FL, AOCC02FL, and AOCC03FL are permissible, and not required.",
      "required_inputs": [],
      "review_status": "CANDIDATE",
      "rule_id": "adam-occds:0b1c0ee8b44fe73f",
      "rule_type": "CONTROLLED_TERMINOLOGY",
      "scope": {
        "candidate_kind": "controlled_terminology",
        "dataset_scope": [
          "ADSL"
        ],
        "datasets": [
          "ADSL"
        ],
        "structure_scope": [
          "BASIC_DATA_STRUCTURE",
          "OCCURRENCE_DATA_STRUCTURE"
        ],
        "variable_scope": [
          "AGE",
          "AGEGR1",
          "RACE",
          "SEX",
          "TRT01AN",
          "TRTEDT",
          "TRTSDT"
        ],
        "variables": [
          "AGE",
          "AGEGR1",
          "RACE",
          "SEX",
          "TRT01AN",
          "TRTEDT",
          "TRTSDT"
        ]
      },
      "semantic_reconstruction_status": "CANDIDATE_RECONSTRUCTED",
      "source_hash": "e5e510c491cad804236f89cc1bada6cca0f4b2f31c7dc84022d4197886fa8a1c",
      "source_section_classification": "CONTROLLED_TERMINOLOGY",
      "standard_id": "adam-occds",
      "standard_name": "ADaM OCCDS Implementation Guide",
      "standard_version": "1.1",
      "structure_scope": [
        "BASIC_DATA_STRUCTURE",
        "OCCURRENCE_DATA_STRUCTURE"
      ],
      "validation_requirement": null,
      "validation_requirements": [],
      "variable_scope": [
        "AGE",
        "AGEGR1",
        "RACE",
        "SEX",
        "TRT01AN",
        "TRTEDT",
        "TRTSDT"
      ]
    },
    {
      "applicability_conditions": [
        "The individual reference names will point to a dedicated section in the data definition file where all external dictionaries used in the analysis are listed, including dictionary name and version.",
        "3.2.11 User-specified Variable Naming Conventions ADaM allows for user-specified variable names when creating additional variables not specified in this document or the ADaMIG."
      ],
      "classification": "STANDARD_REQUIRED",
      "classification_status": "RESOLVED",
      "conformance_metadata": null,
      "dataset_scope": [
        "ADSL"
      ],
      "evidence_locator": {
        "duplicate_locators": [],
        "extraction_timestamp": "2026-08-10T08:11:23+00:00",
        "page": 25,
        "parser_compiler_version": "m3r-1",
        "section": null,
        "source_binding_status": "SOURCE_BOUND",
        "source_excerpt": "CDISC ADaM Structure for Occurrence Data (OCCDS) Implementation Guide (1.1 Final) \u00a9 2021 Clinical Data Interchange Standards Consortium, Inc. All rights reserved Page 25 2021-11-29 The variables described below provide traceability to original (or prior) analysis(es). The suffix \u201cw\u201d represents an integer (1-9) corresponding to a previous version. Include the dictionary name and version as part of the metadata for..."
      },
      "exact_source_excerpt": "CDISC ADaM Structure for Occurrence Data (OCCDS) Implementation Guide (1.1 Final) \u00a9 2021 Clinical Data Interchange Standards Consortium, Inc. All rights reserved Page 25 2021-11-29 The variables described below provide traceability to original (or prior) analysis(es). The suffix \u201cw\u201d represents an integer (1-9) corresponding to a previous version. Include the dictionary name and version as part of the metadata for each variable. These variable names at this time are recommendations only. Additional prior or original variables needed for traceability may be added following the same conventions. There is an ADaM subteam working on integration, and this group may create different naming conventions for that type of analysis. Table 3.2.10.1 Original or Prior MedDRA Coding Variables Variable Name Variable Label Type Codelist Controlled Termsa Core SubClass ADVERSE EVENT Core CDISC Notes DECDORGw PT in Original Dictionary w Char MedDRAw Perm Perm Original preferred term coding of XX.--TERM using MedDRA or other dictionary version X.X. BDSYORGw SOC in Original Dictionary w Char MedDRAw Perm Perm Original body system coding of XX.--TERM using MedDRA or other dictionary version X.X. HLGTORGw HLGT in Original Dictionary w Char MedDRAw Perm Perm Original HLGT coding of XX.--TERM using MedDRA or other dictionary version X.X HLTORGw HLT in Original Dictionary w Char MedDRAw Perm Perm Original HLT coding of XX.--TERM using MedDRA or other dictionary version X.X. LLTORGw LLT in Original Dictionary w Char MedDRAw Perm Perm Original LLT coding of XX.--TERM using MedDRA or other dictionary version X.X. LLTNORGw LLT Code in Original Dictionary w Char MedDRAw Perm Perm Original LLT code of XX.--TERM using MedDRA or other dictionary version X.X. aFor each version of an external dictionary, a different reference name must be used. The individual reference names will point to a dedicated section in the data definition file where all external dictionaries used in the analysis are listed, including dictionary name and version. Table 3.2.10.2 Original or Prior WHO Drug Coding Variables Variable Name Variable Label Type Codelist Controlled Termsa Core SubClass ADVERSE EVENT Core CDISC Notes DECDORGw Standardized Med Name in Orig Dict w Char WHODRUGw Perm Perm Original standardized medication name of CM.CMTRT using WHO Drug version X.X CLASORGw Medication Class in Orig Dictionary w Char WHODRUGw Perm Perm Original medication class of CM.CMTRT using WHO Drug version X.X CLCDORGw Medication Class Code in Orig Dict w Char WHODRUGw Perm Perm Original medication class code of CM.CMTRT using WHO Drug version X.X ATyCORGw ATC Level y Code in Orig Dictionary w Char WHODRUGw Perm Perm Original ATC Level y code of CM.CMTRT using WHO Drug version X.X ATyTORGw ATC Level y Text in Orig Dictionary w Char WHODRUGw Perm Perm Original ATC Level y text of CM.CMTRT using WHO Drug version X.X aFor each version of an external dictionary, a different reference name must be used. The individual reference names will point to a dedicated section in the data definition file where all external dictionaries used in the analysis are listed, including dictionary name and version. 3.2.11 User-specified Variable Naming Conventions ADaM allows for user-specified variable names when creating additional variables not specified in this document or the ADaMIG. The ADaMIG has variable name fragments and other conventions, which are often needed with ADSL and BDS datasets. OCCDS datasets may have fewer derived variables, but there are some conventions and fragments described here to help build easily understood variable names.",
      "excluded_reason": null,
      "expected_outputs": [
        "ADSL",
        "ADSL.ADVERSE",
        "ADSL.ATC",
        "ADSL.CMTRT",
        "ADSL.EVENT",
        "ADSL.HLGT",
        "ADSL.HLT",
        "ADSL.LLT",
        "ADSL.SOC",
        "ADSL.TERM",
        "ADSL.WHO"
      ],
      "extraction_status": "CANDIDATE_RULE",
      "grain": null,
      "keys": [],
      "local_relative_source_path": "ADaM_OCCDS_Implementation_Guide v1.1.pdf",
      "normalized_atomic_requirement": "Additional prior or original variables needed for traceability may be added following the same conventions.",
      "normative_strength": "REQUIRED",
      "official_url": "https://www.cdisc.org/system/files/members/standard/foundational/ADaM_OCCDS_Implementation_Guide%20v1.1.pdf",
      "permitted_variations": [
        "Additional prior or original variables needed for traceability may be added following the same conventions.",
        "There is an ADaM subteam working on integration, and this group may create different naming conventions for that type of analysis.",
        "OCCDS datasets may have fewer derived variables, but there are some conventions and fragments described here to help build easily understood variable names."
      ],
      "prohibited_behavior": [],
      "required_behavior": "Additional prior or original variables needed for traceability may be added following the same conventions.",
      "required_inputs": [],
      "review_status": "CANDIDATE",
      "rule_id": "adam-occds:0e0376c6aa71569e",
      "rule_type": "CONTROLLED_TERMINOLOGY",
      "scope": {
        "candidate_kind": "controlled_terminology",
        "dataset_scope": [
          "ADSL"
        ],
        "datasets": [
          "ADSL"
        ],
        "structure_scope": [
          "BASIC_DATA_STRUCTURE",
          "OCCURRENCE_DATA_STRUCTURE"
        ],
        "variable_scope": [
          "ADVERSE",
          "ATC",
          "CMTRT",
          "EVENT",
          "HLGT",
          "HLT",
          "LLT",
          "SOC",
          "TERM",
          "WHO"
        ],
        "variables": [
          "ADVERSE",
          "ATC",
          "CMTRT",
          "EVENT",
          "HLGT",
          "HLT",
          "LLT",
          "SOC",
          "TERM",
          "WHO"
        ]
      },
      "semantic_reconstruction_status": "CANDIDATE_RECONSTRUCTED",
      "source_hash": "e5e510c491cad804236f89cc1bada6cca0f4b2f31c7dc84022d4197886fa8a1c",
      "source_section_classification": "CONTROLLED_TERMINOLOGY",
      "standard_id": "adam-occds",
      "standard_name": "ADaM OCCDS Implementation Guide",
      "standard_version": "1.1",
      "structure_scope": [
        "BASIC_DATA_STRUCTURE",
        "OCCURRENCE_DATA_STRUCTURE"
      ],
      "validation_requirement": "aFor each version of an external dictionary, a different reference name must be used.",
      "validation_requirements": [
        "aFor each version of an external dictionary, a different reference name must be used.",
        "Table 3.2.10.2 Original or Prior WHO Drug Coding Variables Variable Name Variable Label Type Codelist Controlled Termsa Core SubClass ADVERSE EVENT Core CDISC Notes DECDORGw Standardized Med Name in Orig Dict w Char WHODRUGw Perm Perm Original standardized medication name of CM.CMTRT using WHO Drug version X.X CLASORGw Medication Class in Orig Dictionary w Char WHODRUGw Perm Perm Original medication class of CM.CMTRT using WHO Drug version X.X CLCDORGw Medication Class Code in Orig Dict w Char WHODRUGw Perm Perm Original medication class code of CM.CMTRT using WHO Drug version X.X ATyCORGw ATC Level y Code in Orig Dictionary w Char WHODRUGw Perm Perm Original ATC Level y code of CM.CMTRT using WHO Drug version X.X ATyTORGw ATC Level y Text in Orig Dictionary w Char WHODRUGw Perm Perm Original ATC Level y text of CM.CMTRT using WHO Drug version X.X aFor each version of an external dictionary, a different reference name must be used."
      ],
      "variable_scope": [
        "ADVERSE",
        "ATC",
        "CMTRT",
        "EVENT",
        "HLGT",
        "HLT",
        "LLT",
        "SOC",
        "TERM",
        "WHO"
      ]
    },
    {
      "applicability_conditions": [],
      "classification": "STANDARD_REQUIRED",
      "classification_status": "RESOLVED",
      "conformance_metadata": null,
      "dataset_scope": [
        "ADAE"
      ],
      "evidence_locator": {
        "duplicate_locators": [],
        "extraction_timestamp": "2026-08-10T08:11:23+00:00",
        "page": 34,
        "parser_compiler_version": "m3r-1",
        "section": null,
        "source_binding_status": "SOURCE_BOUND",
        "source_excerpt": "CDISC ADaM Structure for Occurrence Data (OCCDS) Implementation Guide (1.1 Final) \u00a9 2021 Clinical Data Interchange Standards Consortium, Inc. All rights reserved Page 34 2021-11-29 5.2 Sample ADaM Variable Metadata - Example 2 This example describes an adverse events ADaM dataset named ADAE. ADAE is not a required dataset name. In Table 5.2.1, 4 variables relate to the primary SMQ of interest (hemorrhage terms): S..."
      },
      "exact_source_excerpt": "CDISC ADaM Structure for Occurrence Data (OCCDS) Implementation Guide (1.1 Final) \u00a9 2021 Clinical Data Interchange Standards Consortium, Inc. All rights reserved Page 34 2021-11-29 5.2 Sample ADaM Variable Metadata - Example 2 This example describes an adverse events ADaM dataset named ADAE. ADAE is not a required dataset name. In Table 5.2.1, 4 variables relate to the primary SMQ of interest (hemorrhage terms): SMQ01CD, SMQ01NAM SMQ01SC, and SMQ01SCN. The first 2 of these variables, SMQ01CD and SMQ01NAM, contain the numeric code and name for the SMQ from MedDRA. The next 2 variables, SMQ01SC and SMQ01SCN, are character and numeric variables, respectively, that indicate not only whether or not the given AE meets the criteria for the given SMQ, but also whether the term meets the SMQ\u2019s broad or narrow scope (the SC suffix is for \u201cscope\u201d). Table 5.2.1 Example of ADaM Variable Metadata Dataset Name Variable Name Variable Label Variable Type Codelist",
      "excluded_reason": null,
      "expected_outputs": [
        "ADAE",
        "ADAE.SMQ",
        "ADAE.SMQ01CD",
        "ADAE.SMQ01NAM",
        "ADAE.SMQ01SC",
        "ADAE.SMQ01SCN"
      ],
      "extraction_status": "CANDIDATE_RULE",
      "grain": null,
      "keys": [],
      "local_relative_source_path": "ADaM_OCCDS_Implementation_Guide v1.1.pdf",
      "normalized_atomic_requirement": "ADAE is not a required dataset name.",
      "normative_strength": "REQUIRED",
      "official_url": "https://www.cdisc.org/system/files/members/standard/foundational/ADaM_OCCDS_Implementation_Guide%20v1.1.pdf",
      "permitted_variations": [],
      "prohibited_behavior": [],
      "required_behavior": "ADAE is not a required dataset name.",
      "required_inputs": [],
      "review_status": "CANDIDATE",
      "rule_id": "adam-occds:0e1ed428b42efad8",
      "rule_type": "CONTROLLED_TERMINOLOGY",
      "scope": {
        "candidate_kind": "controlled_terminology",
        "dataset_scope": [
          "ADAE"
        ],
        "datasets": [
          "ADAE"
        ],
        "structure_scope": [
          "OCCURRENCE_DATA_STRUCTURE"
        ],
        "variable_scope": [
          "SMQ",
          "SMQ01CD",
          "SMQ01NAM",
          "SMQ01SC",
          "SMQ01SCN"
        ],
        "variables": [
          "SMQ",
          "SMQ01CD",
          "SMQ01NAM",
          "SMQ01SC",
          "SMQ01SCN"
        ]
      },
      "semantic_reconstruction_status": "CANDIDATE_RECONSTRUCTED",
      "source_hash": "e5e510c491cad804236f89cc1bada6cca0f4b2f31c7dc84022d4197886fa8a1c",
      "source_section_classification": "CONTROLLED_TERMINOLOGY",
      "standard_id": "adam-occds",
      "standard_name": "ADaM OCCDS Implementation Guide",
      "standard_version": "1.1",
      "structure_scope": [
        "OCCURRENCE_DATA_STRUCTURE"
      ],
      "validation_requirement": null,
      "validation_requirements": [],
      "variable_scope": [
        "SMQ",
        "SMQ01CD",
        "SMQ01NAM",
        "SMQ01SC",
        "SMQ01SCN"
      ]
    },
    {
      "applicability_conditions": [],
      "classification": "STANDARD_GUIDED",
      "classification_status": "RESOLVED",
      "conformance_metadata": null,
      "dataset_scope": [],
      "evidence_locator": {
        "duplicate_locators": [],
        "extraction_timestamp": "2026-08-10T08:11:23+00:00",
        "page": 19,
        "parser_compiler_version": "m3r-1",
        "section": null,
        "source_binding_status": "SOURCE_BOUND",
        "source_excerpt": "CDISC ADaM Structure for Occurrence Data (OCCDS) Implementation Guide (1.1 Final) \u00a9 2021 Clinical Data Interchange Standards Consortium, Inc. All rights reserved Page 19 2021-11-29 3.2.5 Indicator Variables Although some indicator variables can be copied from the SDTM, others are derived within ADaM. If indicator variables other than those shown in this section are included in the SDTM and pertinent for analysis,..."
      },
      "exact_source_excerpt": "CDISC ADaM Structure for Occurrence Data (OCCDS) Implementation Guide (1.1 Final) \u00a9 2021 Clinical Data Interchange Standards Consortium, Inc. All rights reserved Page 19 2021-11-29 3.2.5 Indicator Variables Although some indicator variables can be copied from the SDTM, others are derived within ADaM. If indicator variables other than those shown in this section are included in the SDTM and pertinent for analysis, these should be copied to ADaM. Other indicator analysis variables that are needed for analysis can also be added. Table 3.2.5.1 SDTM Indicator Variables Variable Name Variable Label Type Codelista Controlled Terms Core SubClass ADVERSE EVENT Core CDISC Notes --OCCUR XX Occurrence Char (NY) Cond Not used Copied from XX.--OCCUR Conditional on whether this content is pertinent for analysis and is populated in SDTM SDTM does not allow variable AEOCCUR, so this variable is not available to include in ADaM. --PRESP XX Pre-Specified Char (NY) Cond Cond Copied from XX.--PRESP Conditional on whether this content is pertinent for analysis and is populated in SDTM aCodelists in parenthesis are the names of CDISC Controlled Terminology.",
      "excluded_reason": null,
      "expected_outputs": [],
      "extraction_status": "CANDIDATE_RULE",
      "grain": null,
      "keys": [],
      "local_relative_source_path": "ADaM_OCCDS_Implementation_Guide v1.1.pdf",
      "normalized_atomic_requirement": "If indicator variables other than those shown in this section are included in the SDTM and pertinent for analysis, these should be copied to ADaM.",
      "normative_strength": "GUIDED",
      "official_url": "https://www.cdisc.org/system/files/members/standard/foundational/ADaM_OCCDS_Implementation_Guide%20v1.1.pdf",
      "permitted_variations": [
        "All rights reserved Page 19 2021-11-29 3.2.5 Indicator Variables Although some indicator variables can be copied from the SDTM, others are derived within ADaM.",
        "If indicator variables other than those shown in this section are included in the SDTM and pertinent for analysis, these should be copied to ADaM.",
        "Other indicator analysis variables that are needed for analysis can also be added."
      ],
      "prohibited_behavior": [],
      "required_behavior": "If indicator variables other than those shown in this section are included in the SDTM and pertinent for analysis, these should be copied to ADaM.",
      "required_inputs": [],
      "review_status": "CANDIDATE",
      "rule_id": "adam-occds:1ac24b14e99d7753",
      "rule_type": "CONTROLLED_TERMINOLOGY",
      "scope": {
        "candidate_kind": "controlled_terminology",
        "dataset_scope": [],
        "datasets": [],
        "structure_scope": [
          "OCCURRENCE_DATA_STRUCTURE"
        ],
        "variable_scope": [
          "ADVERSE",
          "AEOCCUR",
          "EVENT",
          "OCCUR",
          "PRESP"
        ],
        "variables": [
          "ADVERSE",
          "AEOCCUR",
          "EVENT",
          "OCCUR",
          "PRESP"
        ]
      },
      "semantic_reconstruction_status": "CANDIDATE_RECONSTRUCTED",
      "source_hash": "e5e510c491cad804236f89cc1bada6cca0f4b2f31c7dc84022d4197886fa8a1c",
      "source_section_classification": "CONTROLLED_TERMINOLOGY",
      "standard_id": "adam-occds",
      "standard_name": "ADaM OCCDS Implementation Guide",
      "standard_version": "1.1",
      "structure_scope": [
        "OCCURRENCE_DATA_STRUCTURE"
      ],
      "validation_requirement": null,
      "validation_requirements": [],
      "variable_scope": [
        "ADVERSE",
        "AEOCCUR",
        "EVENT",
        "OCCUR",
        "PRESP"
      ]
    },
    {
      "applicability_conditions": [
        "The combination of dataset or domain name and the relevant sequence number, when used in conjunction with USUBJID, provide datapoint traceability."
      ],
      "classification": "STANDARD_GUIDED",
      "classification_status": "RESOLVED",
      "conformance_metadata": null,
      "dataset_scope": [
        "ADSL"
      ],
      "evidence_locator": {
        "duplicate_locators": [],
        "extraction_timestamp": "2026-08-10T08:11:23+00:00",
        "page": 13,
        "parser_compiler_version": "m3r-1",
        "section": null,
        "source_binding_status": "SOURCE_BOUND",
        "source_excerpt": "3.2.1 ADSL Variables Merge any subject-level variables needed for analysis or reference. Be aware that only subjects with a record in an input SDTM domain would have a record in the analysis dataset. For this reason, it is recommended that population indicators and denominator counts for percentages be derived from ADSL and not from the occurrence analysis dataset. 3.2.2 Identifier Variables Table 3.2.2.1 includes..."
      },
      "exact_source_excerpt": "3.2.1 ADSL Variables Merge any subject-level variables needed for analysis or reference. Be aware that only subjects with a record in an input SDTM domain would have a record in the analysis dataset. For this reason, it is recommended that population indicators and denominator counts for percentages be derived from ADSL and not from the occurrence analysis dataset. 3.2.2 Identifier Variables Table 3.2.2.1 includes the identifier variables from SDTM. Table 3.2.2.1 OCCDS Identifier Variables Variable Name Variable Label Type Codelist Controlled Terms Core SubClass ADVERSE EVENT Core CDISC Notes STUDYID Study Identifier Char Req Req XX.STUDYID USUBJID Unique Subject Identifier Char Req Req XX.USUBJID SUBJID Subject Identifier for the Study Char Perm Perm ADSL.SUBJID SITEID Study Site Identifier Char Perm Perm ADSL.SITEID In addition to the above identifiers, row identifiers are included to support datapoint traceability. The combination of dataset or domain name and the relevant sequence number, when used in conjunction with USUBJID, provide datapoint traceability. There are 2 row identifier options: --SEQ or the combination of SRCDOM + SRCSEQ.",
      "excluded_reason": null,
      "expected_outputs": [
        "ADSL",
        "ADSL.SITEID",
        "ADSL.SUBJID"
      ],
      "extraction_status": "CANDIDATE_RULE",
      "grain": null,
      "keys": [
        "SDTM",
        "ADVERSE",
        "EVENT",
        "CDISC",
        "STUDYID",
        "XX",
        "ADSL"
      ],
      "local_relative_source_path": "ADaM_OCCDS_Implementation_Guide v1.1.pdf",
      "normalized_atomic_requirement": "3.2.1 ADSL Variables Merge any subject-level variables needed for analysis or reference. Be aware that only subjects with a record in an input SDTM domain would have a record in the analysis dataset. For this reason, it is recommended that population indicators and denominator counts for percentages be derived from ADSL and not from the occurrence analysi...",
      "normative_strength": "GUIDED",
      "official_url": "https://www.cdisc.org/system/files/members/standard/foundational/ADaM_OCCDS_Implementation_Guide%20v1.1.pdf",
      "permitted_variations": [],
      "prohibited_behavior": [],
      "required_behavior": "3.2.1 ADSL Variables Merge any subject-level variables needed for analysis or reference. Be aware that only subjects with a record in an input SDTM domain would have a record in the analysis dataset. For this reason, it is recommended that population indicators and denominator counts for percentages be derived from ADSL and not from the occurrence analysi...",
      "required_inputs": [],
      "review_status": "CANDIDATE",
      "rule_id": "adam-occds:25e2349a1c88147d",
      "rule_type": "CONTROLLED_TERMINOLOGY",
      "scope": {
        "candidate_kind": "controlled_terminology",
        "dataset_scope": [
          "ADSL"
        ],
        "datasets": [
          "ADSL"
        ],
        "structure_scope": [
          "OCCURRENCE_DATA_STRUCTURE"
        ],
        "variable_scope": [
          "SITEID",
          "SUBJID"
        ],
        "variables": [
          "SITEID",
          "SUBJID"
        ]
      },
      "semantic_reconstruction_status": "CANDIDATE_RECONSTRUCTED",
      "source_hash": "e5e510c491cad804236f89cc1bada6cca0f4b2f31c7dc84022d4197886fa8a1c",
      "source_section_classification": "CONTROLLED_TERMINOLOGY",
      "standard_id": "adam-occds",
      "standard_name": "ADaM OCCDS Implementation Guide",
      "standard_version": "1.1",
      "structure_scope": [
        "OCCURRENCE_DATA_STRUCTURE"
      ],
      "validation_requirement": null,
      "validation_requirements": [],
      "variable_scope": [
        "SITEID",
        "SUBJID"
      ]
    },
    {
      "applicability_conditions": [
        "Table 3.2.5.2 OCCDS Indicator Variables Variable Name Variable Label Type Codelist Controlled Terms Core SubClass ADVERSE EVENT Core CDISC Notes ANLzzFL Analysis Flag zz Char Y Cond Cond The ANLzzFL flag is useful in many circumstances; an example is when more than 1 coding path is included for analysis, in which case separate analysis flags could be used to denote primary coding path or the records used for analysis from each coding path.",
        "Table 3.2.5.3 Adverse Events Indicator Variables Variable Name Variable Label Type Codelista Controlled Terms Core SubClass ADVERSE EVENT Core CDISC Notes TRTEMFL Treatment Emergent Analysis Flag Char Y Cond Req Treatment-emergent flag as defined for analysis Example derivation: If ADSL.TRTSDT<=ASTDT<=ADSL.TRTEDT + x days then TRTEMFL=\"Y\" The number x in this derivation is defined by the producer and often incorporates the known half-life of the drug.",
        "TREMxxFL Treatment Emergent Period xx Flag Char Y Cond Cond This variable is required if there are multiple periods where treatment emergence is a key feature of the analysis for each period."
      ],
      "classification": "STANDARD_REQUIRED",
      "classification_status": "RESOLVED",
      "conformance_metadata": null,
      "dataset_scope": [
        "ADSL"
      ],
      "evidence_locator": {
        "duplicate_locators": [],
        "extraction_timestamp": "2026-08-10T08:11:23+00:00",
        "page": 19,
        "parser_compiler_version": "m3r-1",
        "section": null,
        "source_binding_status": "SOURCE_BOUND",
        "source_excerpt": "Table 3.2.5.2 OCCDS Indicator Variables Variable Name Variable Label Type Codelist Controlled Terms Core SubClass ADVERSE EVENT Core CDISC Notes ANLzzFL Analysis Flag zz Char Y Cond Cond The ANLzzFL flag is useful in many circumstances; an example is when more than 1 coding path is included for analysis, in which case separate analysis flags could be used to denote primary coding path or the records used for analy..."
      },
      "exact_source_excerpt": "Table 3.2.5.2 OCCDS Indicator Variables Variable Name Variable Label Type Codelist Controlled Terms Core SubClass ADVERSE EVENT Core CDISC Notes ANLzzFL Analysis Flag zz Char Y Cond Cond The ANLzzFL flag is useful in many circumstances; an example is when more than 1 coding path is included for analysis, in which case separate analysis flags could be used to denote primary coding path or the records used for analysis from each coding path. A codelist of Y, N, null may be used as described in ADaMIG v1.2 Section 3.3.8, Indicator Variables for BDS Datasets. This variable is conditional on whether analysis records flags are needed for analysis. With adverse events and concomitant medications, typically indicator flags are also assigned based on the timing of the analysis record in relation to the study. Tables 3.2.5.3, 3.2.5.4, and 3.2.5.5 include some common indicator flags for these types of data. Table 3.2.5.3 Adverse Events Indicator Variables Variable Name Variable Label Type Codelista Controlled Terms Core SubClass ADVERSE EVENT Core CDISC Notes TRTEMFL Treatment Emergent Analysis Flag Char Y Cond Req Treatment-emergent flag as defined for analysis Example derivation: If ADSL.TRTSDT<=ASTDT<=ADSL.TRTEDT + x days then TRTEMFL=\"Y\" The number x in this derivation is defined by the producer and often incorporates the known half-life of the drug. For datasets other than SubClass ADVERSE EVENT, this variable is conditional on whether the concept of treatment emergent is a key feature of the analysis. TREMxxFL Treatment Emergent Period xx Flag Char Y Cond Cond This variable is required if there are multiple periods where treatment emergence is a key feature of the analysis for each period. If TREMxxFL is included, TRTEMFL is defined as the overall treatment- emergent flag.",
      "excluded_reason": null,
      "expected_outputs": [
        "ADSL",
        "ADSL.TRTEDT",
        "ADSL.TRTSDT"
      ],
      "extraction_status": "CANDIDATE_RULE",
      "grain": null,
      "keys": [],
      "local_relative_source_path": "ADaM_OCCDS_Implementation_Guide v1.1.pdf",
      "normalized_atomic_requirement": "A codelist of Y, N, null may be used as described in ADaMIG v1.2 Section 3.3.8, Indicator Variables for BDS Datasets.",
      "normative_strength": "REQUIRED",
      "official_url": "https://www.cdisc.org/system/files/members/standard/foundational/ADaM_OCCDS_Implementation_Guide%20v1.1.pdf",
      "permitted_variations": [
        "A codelist of Y, N, null may be used as described in ADaMIG v1.2 Section 3.3.8, Indicator Variables for BDS Datasets."
      ],
      "prohibited_behavior": [],
      "required_behavior": "A codelist of Y, N, null may be used as described in ADaMIG v1.2 Section 3.3.8, Indicator Variables for BDS Datasets.",
      "required_inputs": [],
      "review_status": "CANDIDATE",
      "rule_id": "adam-occds:2c28f95fff6bee16",
      "rule_type": "CONTROLLED_TERMINOLOGY",
      "scope": {
        "candidate_kind": "controlled_terminology",
        "dataset_scope": [
          "ADSL"
        ],
        "datasets": [
          "ADSL"
        ],
        "structure_scope": [
          "BASIC_DATA_STRUCTURE",
          "OCCURRENCE_DATA_STRUCTURE"
        ],
        "variable_scope": [
          "TRTEDT",
          "TRTSDT"
        ],
        "variables": [
          "TRTEDT",
          "TRTSDT"
        ]
      },
      "semantic_reconstruction_status": "CANDIDATE_RECONSTRUCTED",
      "source_hash": "e5e510c491cad804236f89cc1bada6cca0f4b2f31c7dc84022d4197886fa8a1c",
      "source_section_classification": "CONTROLLED_TERMINOLOGY",
      "standard_id": "adam-occds",
      "standard_name": "ADaM OCCDS Implementation Guide",
      "standard_version": "1.1",
      "structure_scope": [
        "BASIC_DATA_STRUCTURE",
        "OCCURRENCE_DATA_STRUCTURE"
      ],
      "validation_requirement": null,
      "validation_requirements": [],
      "variable_scope": [
        "TRTEDT",
        "TRTSDT"
      ]
    },
    {
      "applicability_conditions": [],
      "classification": "STANDARD_REQUIRED",
      "classification_status": "RESOLVED",
      "conformance_metadata": null,
      "dataset_scope": [
        "ADAE"
      ],
      "evidence_locator": {
        "duplicate_locators": [],
        "extraction_timestamp": "2026-08-10T08:11:23+00:00",
        "page": 51,
        "parser_compiler_version": "m3r-1",
        "section": null,
        "source_binding_status": "SOURCE_BOUND",
        "source_excerpt": "10.2 Sample ADaM Variable Metadata - Example 7 This example describes an Adverse Events (AE) ADaM dataset named ADAECE. ADAECE is not a required dataset name. ADAECE is used to demonstrate that the input data is from both AE and Clinical Events (CE). A name other than ADAE is suggested because the analysis dataset contains events in addition to those captured in the AE domain, and therefore this dataset is not of..."
      },
      "exact_source_excerpt": "10.2 Sample ADaM Variable Metadata - Example 7 This example describes an Adverse Events (AE) ADaM dataset named ADAECE. ADAECE is not a required dataset name. ADAECE is used to demonstrate that the input data is from both AE and Clinical Events (CE). A name other than ADAE is suggested because the analysis dataset contains events in addition to those captured in the AE domain, and therefore this dataset is not of SubClass ADVERSE EVENT. Table 10.2.1 Sample ADaM Variable Metadata Variable Name Variable Label Variable Type Codelists Controlled Terms Source Derivation STUDYID Study Identifier text AE.STUDYID CE.STUDYID",
      "excluded_reason": null,
      "expected_outputs": [
        "ADAE",
        "ADAE.ADAECE",
        "ADAE.ADVERSE",
        "ADAE.EVENT",
        "ADAE.STUDYID"
      ],
      "extraction_status": "CANDIDATE_RULE",
      "grain": null,
      "keys": [
        "AE"
      ],
      "local_relative_source_path": "ADaM_OCCDS_Implementation_Guide v1.1.pdf",
      "normalized_atomic_requirement": "ADAECE is not a required dataset name.",
      "normative_strength": "REQUIRED",
      "official_url": "https://www.cdisc.org/system/files/members/standard/foundational/ADaM_OCCDS_Implementation_Guide%20v1.1.pdf",
      "permitted_variations": [],
      "prohibited_behavior": [],
      "required_behavior": "ADAECE is not a required dataset name.",
      "required_inputs": [
        "AE.STUDYID"
      ],
      "review_status": "CANDIDATE",
      "rule_id": "adam-occds:45940c76ea5b9f52",
      "rule_type": "CONTROLLED_TERMINOLOGY",
      "scope": {
        "candidate_kind": "controlled_terminology",
        "dataset_scope": [
          "ADAE"
        ],
        "datasets": [
          "ADAE"
        ],
        "structure_scope": [],
        "variable_scope": [
          "ADAECE",
          "ADVERSE",
          "EVENT",
          "STUDYID"
        ],
        "variables": [
          "ADAECE",
          "ADVERSE",
          "EVENT",
          "STUDYID"
        ]
      },
      "semantic_reconstruction_status": "CANDIDATE_RECONSTRUCTED",
      "source_hash": "e5e510c491cad804236f89cc1bada6cca0f4b2f31c7dc84022d4197886fa8a1c",
      "source_section_classification": "CONTROLLED_TERMINOLOGY",
      "standard_id": "adam-occds",
      "standard_name": "ADaM OCCDS Implementation Guide",
      "standard_version": "1.1",
      "structure_scope": [],
      "validation_requirement": null,
      "validation_requirements": [],
      "variable_scope": [
        "ADAECE",
        "ADVERSE",
        "EVENT",
        "STUDYID"
      ]
    },
    {
      "applicability_conditions": [],
      "classification": "STANDARD_GUIDED",
      "classification_status": "RESOLVED",
      "conformance_metadata": null,
      "dataset_scope": [],
      "evidence_locator": {
        "duplicate_locators": [],
        "extraction_timestamp": "2026-08-10T08:11:23+00:00",
        "page": 60,
        "parser_compiler_version": "m3r-1",
        "section": null,
        "source_binding_status": "SOURCE_BOUND",
        "source_excerpt": "CDISC ADaM Structure for Occurrence Data (OCCDS) Implementation Guide (1.1 Final) \u00a9 2021 Clinical Data Interchange Standards Consortium, Inc. All rights reserved Page 60 2021-11-29 Dataset Name Variable Name Variable Label Variable Type Codelist Controlled Terms Source Derivation ADMH MHSCAT Sub Category for Medical History text MH.MHSCAT ADMH MHDECOD Dictionary- Derived Term text MH.MHDECOD ADMH MHBODSYS Body Sys..."
      },
      "exact_source_excerpt": "CDISC ADaM Structure for Occurrence Data (OCCDS) Implementation Guide (1.1 Final) \u00a9 2021 Clinical Data Interchange Standards Consortium, Inc. All rights reserved Page 60 2021-11-29 Dataset Name Variable Name Variable Label Variable Type Codelist Controlled Terms Source Derivation ADMH MHSCAT Sub Category for Medical History text MH.MHSCAT ADMH MHDECOD Dictionary- Derived Term text MH.MHDECOD ADMH MHBODSYS Body System or Organ Class text MH.MHBODSYS ADMH MHTERM Reported Term for the Medical History text MH.MHTERM ADMH MHSTDTC Start Date/Time of Medication datetime ISO 8601 MH.MHSTDTC ADMH ASTDT Analysis Start Date integer From MH.MHSTDTC, converted to SAS date. Any derivations to derive partial start dates are applied here and listed in comments. ADMH ASTTM Analysis Start Time integer From MH.MHSTDTC, converted to SAS time ADMH ASTDTM Analysis Start Datetime integer From MH.MHSTDTC, converted to SAS datetime ADMH MHENDTC End Date/Time of Medication datetime ISO 8601 MH.MHENDTC ADMH AENDT Analysis End Date integer From MH.MHENDTC, converted to SAS date. Any derivations to derive partial start dates are applied here and listed in comments. ADMH AENTM Analysis End Time integer From MH.MHENDTC, converted to SAS time ADMH AENDTM Analysis End Datetime integer From MH.MHENDTC, converted to SAS datetime ADMH MHENRF End Relative to Reference Period text MH.MHENRF 12.3 Sample ADaM Data - Example 9 Table 12.3.1 is an illustration of the Medical History analysis dataset (ADMH) defined in Section 12.2, Sample ADaM Variable Metadata - Example 9. The ADMH dataset illustrated in this example was designed to support some standard subsets and/or classifications of medical histories. The example describes key variables and records that would be included in the dataset. The example data are assumed to be gathered on a CRF that contains a set of defined categories. A subject may or may not have had any significant medical history in any of the categories on the form. There is a record in the SDTM MH dataset for each symptom or condition listed on the form; subjects with no recorded medical history may not appear in this file. The MHCAT variable indicates the type of CRF page on which data were gathered, and MHSCAT indicates the CRF category. MHTERM is the symptom term that was recorded; MHDECOD and MHBODSYS are taken from matching the text in MHTERM with a coding dictionary (in this case MedDRA). The date variables indicate the beginning and end timing of the medical history event. Key points to note in the example are: 1. Variables such as MHSTDTC and MHENDTC are copied in from the SDTM MH domain to provide data- point traceability. 2. Variables such as MHSCAT, MHDECOD, and MHBODSYS are copied in from the SDTM MH domain for analysis purposes. 3. ASTDT and AENDT are the timing variables used for analysis. Timing variable MHENRF is a supportive variable for metadata traceability.",
      "excluded_reason": null,
      "expected_outputs": [],
      "extraction_status": "CANDIDATE_RULE",
      "grain": null,
      "keys": [],
      "local_relative_source_path": "ADaM_OCCDS_Implementation_Guide v1.1.pdf",
      "normalized_atomic_requirement": "A subject may or may not have had any significant medical history in any of the categories on the form.",
      "normative_strength": "GUIDED",
      "official_url": "https://www.cdisc.org/system/files/members/standard/foundational/ADaM_OCCDS_Implementation_Guide%20v1.1.pdf",
      "permitted_variations": [
        "A subject may or may not have had any significant medical history in any of the categories on the form.",
        "There is a record in the SDTM MH dataset for each symptom or condition listed on the form; subjects with no recorded medical history may not appear in this file."
      ],
      "prohibited_behavior": [],
      "required_behavior": "A subject may or may not have had any significant medical history in any of the categories on the form.",
      "required_inputs": [],
      "review_status": "CANDIDATE",
      "rule_id": "adam-occds:477ef77f2658a189",
      "rule_type": "CONTROLLED_TERMINOLOGY",
      "scope": {
        "candidate_kind": "controlled_terminology",
        "dataset_scope": [],
        "datasets": [],
        "structure_scope": [
          "OCCURRENCE_DATA_STRUCTURE"
        ],
        "variable_scope": [
          "ADMH",
          "AENDT",
          "AENDTM",
          "AENTM",
          "ASTDT",
          "ASTDTM",
          "ASTTM",
          "CRF",
          "ISO",
          "MHBODSYS",
          "MHCAT",
          "MHDECOD",
          "MHENDTC",
          "MHENRF",
          "MHSCAT",
          "MHSTDTC",
          "MHTERM",
          "SAS"
        ],
        "variables": [
          "ADMH",
          "AENDT",
          "AENDTM",
          "AENTM",
          "ASTDT",
          "ASTDTM",
          "ASTTM",
          "CRF",
          "ISO",
          "MHBODSYS",
          "MHCAT",
          "MHDECOD",
          "MHENDTC",
          "MHENRF",
          "MHSCAT",
          "MHSTDTC",
          "MHTERM",
          "SAS"
        ]
      },
      "semantic_reconstruction_status": "CANDIDATE_RECONSTRUCTED",
      "source_hash": "e5e510c491cad804236f89cc1bada6cca0f4b2f31c7dc84022d4197886fa8a1c",
      "source_section_classification": "CONTROLLED_TERMINOLOGY",
      "standard_id": "adam-occds",
      "standard_name": "ADaM OCCDS Implementation Guide",
      "standard_version": "1.1",
      "structure_scope": [
        "OCCURRENCE_DATA_STRUCTURE"
      ],
      "validation_requirement": null,
      "validation_requirements": [],
      "variable_scope": [
        "ADMH",
        "AENDT",
        "AENDTM",
        "AENTM",
        "ASTDT",
        "ASTDTM",
        "ASTTM",
        "CRF",
        "ISO",
        "MHBODSYS",
        "MHCAT",
        "MHDECOD",
        "MHENDTC",
        "MHENRF",
        "MHSCAT",
        "MHSTDTC",
        "MHTERM",
        "SAS"
      ]
    },
    {
      "applicability_conditions": [
        "Table 3.2.7.1 Treatment/Dose Variables Variable Name Variable Label Type Codelista Controlled Terms Core SubClass ADVERSE EVENT Core CDISC Notes DOSEON Treatment Dose at Record Start Num Perm Perm Dose received at the point in time of the record start date Example derivation: Obtained from EX.EXDOSE where --STDTC falls between the values of EX.EXSTDTC and EX.EXENDTC DOSCUMA Cumulative Actual Treatment Dose Num Perm Perm Cumulative actual study drug dosage at the point in time of the record start date"
      ],
      "classification": "STANDARD_REQUIRED",
      "classification_status": "RESOLVED",
      "conformance_metadata": null,
      "dataset_scope": [
        "ADSL"
      ],
      "evidence_locator": {
        "duplicate_locators": [],
        "extraction_timestamp": "2026-08-10T08:11:23+00:00",
        "page": 22,
        "parser_compiler_version": "m3r-1",
        "section": null,
        "source_binding_status": "SOURCE_BOUND",
        "source_excerpt": "CDISC ADaM Structure for Occurrence Data (OCCDS) Implementation Guide (1.1 Final) \u00a9 2021 Clinical Data Interchange Standards Consortium, Inc. All rights reserved Page 22 2021-11-29 3.2.7 Treatment/Dose Variables The treatment variable used for analysis must be included. Typically, this would be TRTP, TRTA, TRTxxP, or TRTxxA. See ADaMIG v1.2 Section 3.2, ADSL Variables, and Section 3.3.2, Record-Level Treatment and..."
      },
      "exact_source_excerpt": "CDISC ADaM Structure for Occurrence Data (OCCDS) Implementation Guide (1.1 Final) \u00a9 2021 Clinical Data Interchange Standards Consortium, Inc. All rights reserved Page 22 2021-11-29 3.2.7 Treatment/Dose Variables The treatment variable used for analysis must be included. Typically, this would be TRTP, TRTA, TRTxxP, or TRTxxA. See ADaMIG v1.2 Section 3.2, ADSL Variables, and Section 3.3.2, Record-Level Treatment and Dose Variables for BDS Datasets, for more details on these variables (available at https://www.cdisc.org/standards/foundational/adam/). Additional dosing variables may also be included. Table 3.2.7.1 Treatment/Dose Variables Variable Name Variable Label Type Codelista Controlled Terms Core SubClass ADVERSE EVENT Core CDISC Notes DOSEON Treatment Dose at Record Start Num Perm Perm Dose received at the point in time of the record start date Example derivation: Obtained from EX.EXDOSE where --STDTC falls between the values of EX.EXSTDTC and EX.EXENDTC DOSCUMA Cumulative Actual Treatment Dose Num Perm Perm Cumulative actual study drug dosage at the point in time of the record start date",
      "excluded_reason": null,
      "expected_outputs": [
        "ADSL",
        "ADSL.ADVERSE",
        "ADSL.DOSCUMA",
        "ADSL.DOSEON",
        "ADSL.EVENT",
        "ADSL.EXDOSE",
        "ADSL.EXENDTC",
        "ADSL.EXSTDTC",
        "ADSL.STDTC",
        "ADSL.TRTA",
        "ADSL.TRTP"
      ],
      "extraction_status": "CANDIDATE_RULE",
      "grain": null,
      "keys": [],
      "local_relative_source_path": "ADaM_OCCDS_Implementation_Guide v1.1.pdf",
      "normalized_atomic_requirement": "All rights reserved Page 22 2021-11-29 3.2.7 Treatment/Dose Variables The treatment variable used for analysis must be included.",
      "normative_strength": "REQUIRED",
      "official_url": "https://www.cdisc.org/system/files/members/standard/foundational/ADaM_OCCDS_Implementation_Guide%20v1.1.pdf",
      "permitted_variations": [
        "Additional dosing variables may also be included."
      ],
      "prohibited_behavior": [],
      "required_behavior": "All rights reserved Page 22 2021-11-29 3.2.7 Treatment/Dose Variables The treatment variable used for analysis must be included.",
      "required_inputs": [
        "EX.EXDOSE",
        "EX.EXENDTC",
        "EX.EXSTDTC"
      ],
      "review_status": "CANDIDATE",
      "rule_id": "adam-occds:5e722e0dde195e4b",
      "rule_type": "CONTROLLED_TERMINOLOGY",
      "scope": {
        "candidate_kind": "controlled_terminology",
        "dataset_scope": [
          "ADSL"
        ],
        "datasets": [
          "ADSL"
        ],
        "structure_scope": [
          "BASIC_DATA_STRUCTURE",
          "OCCURRENCE_DATA_STRUCTURE"
        ],
        "variable_scope": [
          "ADVERSE",
          "DOSCUMA",
          "DOSEON",
          "EVENT",
          "EXDOSE",
          "EXENDTC",
          "EXSTDTC",
          "STDTC",
          "TRTA",
          "TRTP"
        ],
        "variables": [
          "ADVERSE",
          "DOSCUMA",
          "DOSEON",
          "EVENT",
          "EXDOSE",
          "EXENDTC",
          "EXSTDTC",
          "STDTC",
          "TRTA",
          "TRTP"
        ]
      },
      "semantic_reconstruction_status": "CANDIDATE_RECONSTRUCTED",
      "source_hash": "e5e510c491cad804236f89cc1bada6cca0f4b2f31c7dc84022d4197886fa8a1c",
      "source_section_classification": "CONTROLLED_TERMINOLOGY",
      "standard_id": "adam-occds",
      "standard_name": "ADaM OCCDS Implementation Guide",
      "standard_version": "1.1",
      "structure_scope": [
        "BASIC_DATA_STRUCTURE",
        "OCCURRENCE_DATA_STRUCTURE"
      ],
      "validation_requirement": "All rights reserved Page 22 2021-11-29 3.2.7 Treatment/Dose Variables The treatment variable used for analysis must be included.",
      "validation_requirements": [
        "All rights reserved Page 22 2021-11-29 3.2.7 Treatment/Dose Variables The treatment variable used for analysis must be included."
      ],
      "variable_scope": [
        "ADVERSE",
        "DOSCUMA",
        "DOSEON",
        "EVENT",
        "EXDOSE",
        "EXENDTC",
        "EXSTDTC",
        "STDTC",
        "TRTA",
        "TRTP"
      ]
    },
    {
      "applicability_conditions": [],
      "classification": "STANDARD_GUIDED",
      "classification_status": "RESOLVED",
      "conformance_metadata": null,
      "dataset_scope": [],
      "evidence_locator": {
        "duplicate_locators": [],
        "extraction_timestamp": "2026-08-10T08:11:23+00:00",
        "page": 54,
        "parser_compiler_version": "m3r-1",
        "section": null,
        "source_binding_status": "SOURCE_BOUND",
        "source_excerpt": "CDISC ADaM Structure for Occurrence Data (OCCDS) Implementation Guide (1.1 Final) \u00a9 2021 Clinical Data Interchange Standards Consortium, Inc. All rights reserved Page 54 2021-11-29 Row STUDYID USUBJID SAFFL TRT01A TRTSDT TRTSDTM SRCDOM SRCSEQ UTERM UDECOD ACAT1 CEPRESP UBODSYS USER UREL ARELGR1 UTOXGR UACN UOUT USTDTC UENDTC ASTDT ASTDTM TRTEMFL 10 ABC ABC-001 Y SOC + SD 24OCT2017 24OCT17:10:05:00 AE 2 STREP THROA..."
      },
      "exact_source_excerpt": "CDISC ADaM Structure for Occurrence Data (OCCDS) Implementation Guide (1.1 Final) \u00a9 2021 Clinical Data Interchange Standards Consortium, Inc. All rights reserved Page 54 2021-11-29 Row STUDYID USUBJID SAFFL TRT01A TRTSDT TRTSDTM SRCDOM SRCSEQ UTERM UDECOD ACAT1 CEPRESP UBODSYS USER UREL ARELGR1 UTOXGR UACN UOUT USTDTC UENDTC ASTDT ASTDTM TRTEMFL 10 ABC ABC-001 Y SOC + SD 24OCT2017 24OCT17:10:05:00 AE 2 STREP THROAT Pharyngitis streptococcal ADVERSE EVENTS Infections and infestations N NOT RELATED Not Related 3 DOSE NOT CHANGED RECOVERED/RESOLVED 2017-11- 05 2017-11- 15 05NOV2017 Y 11 ABC ABC-001 Y SOC + SD 24OCT2017 24OCT17:10:05:00 AE 3 BODY ACHES Pain ADVERSE EVENTS General disorders and administration site conditions N NOT RELATED Not Related 2 DOSE NOT CHANGED RECOVERED/RESOLVED 2017-11- 17 2017-11- 22 17NOV2017 Y 12 ABC ABC-001 Y SOC + SD 24OCT2017 24OCT17:10:05:00 AE 4 SHORTNESS OF BREATH Dyspnoea ADVERSE EVENTS Respiratory, thoracic and mediastinal disorders Y NOT RELATED Not Related 3 DRUG INTERRUPTED RECOVERED/RESOLVED 2017-11- 25 2017-11- 30 25NOV2017 Y aVariables ending in suffix DTC are character date/time fields in ISO 8601 format. Variables ending in DT are numeric dates, here shown using SAS date format date9. Variables ending in DTM are numeric datetimes, here shown using SAS format datetime16. Other numeric datetime formats can be used, but care should be taken with newer formats which might not be understood by all statistical packages.",
      "excluded_reason": null,
      "expected_outputs": [],
      "extraction_status": "CANDIDATE_RULE",
      "grain": null,
      "keys": [],
      "local_relative_source_path": "ADaM_OCCDS_Implementation_Guide v1.1.pdf",
      "normalized_atomic_requirement": "Other numeric datetime formats can be used, but care should be taken with newer formats which might not be understood by all statistical packages.",
      "normative_strength": "GUIDED",
      "official_url": "https://www.cdisc.org/system/files/members/standard/foundational/ADaM_OCCDS_Implementation_Guide%20v1.1.pdf",
      "permitted_variations": [
        "Other numeric datetime formats can be used, but care should be taken with newer formats which might not be understood by all statistical packages."
      ],
      "prohibited_behavior": [],
      "required_behavior": "Other numeric datetime formats can be used, but care should be taken with newer formats which might not be understood by all statistical packages.",
      "required_inputs": [],
      "review_status": "CANDIDATE",
      "rule_id": "adam-occds:6e2b3e4c22f34219",
      "rule_type": "OPERATIVE_RULE",
      "scope": {
        "candidate_kind": "variable_requirement",
        "dataset_scope": [],
        "datasets": [],
        "structure_scope": [
          "OCCURRENCE_DATA_STRUCTURE"
        ],
        "variable_scope": [
          "ABC",
          "ACAT1",
          "ACHES",
          "ADVERSE",
          "ARELGR1",
          "ASTDT",
          "ASTDTM",
          "BODY",
          "BREATH",
          "CEPRESP",
          "CHANGED",
          "DOSE",
          "DRUG",
          "DTC",
          "DTM",
          "EVENTS",
          "INTERRUPTED",
          "ISO",
          "NOT",
          "RECOVERED",
          "RELATED",
          "RESOLVED",
          "SAFFL",
          "SAS",
          "SHORTNESS",
          "SOC",
          "SRCDOM",
          "SRCSEQ",
          "STREP",
          "STUDYID",
          "THROAT",
          "TRT01A",
          "TRTEMFL",
          "TRTSDT",
          "TRTSDTM",
          "UACN",
          "UBODSYS",
          "UDECOD",
          "UENDTC",
          "UOUT",
          "UREL",
          "USER",
          "USTDTC",
          "USUBJID",
          "UTERM",
          "UTOXGR"
        ],
        "variables": [
          "ABC",
          "ACAT1",
          "ACHES",
          "ADVERSE",
          "ARELGR1",
          "ASTDT",
          "ASTDTM",
          "BODY",
          "BREATH",
          "CEPRESP",
          "CHANGED",
          "DOSE",
          "DRUG",
          "DTC",
          "DTM",
          "EVENTS",
          "INTERRUPTED",
          "ISO",
          "NOT",
          "RECOVERED",
          "RELATED",
          "RESOLVED",
          "SAFFL",
          "SAS",
          "SHORTNESS",
          "SOC",
          "SRCDOM",
          "SRCSEQ",
          "STREP",
          "STUDYID",
          "THROAT",
          "TRT01A",
          "TRTEMFL",
          "TRTSDT",
          "TRTSDTM",
          "UACN",
          "UBODSYS",
          "UDECOD",
          "UENDTC",
          "UOUT",
          "UREL",
          "USER",
          "USTDTC",
          "USUBJID",
          "UTERM",
          "UTOXGR"
        ]
      },
      "semantic_reconstruction_status": "CANDIDATE_RECONSTRUCTED",
      "source_hash": "e5e510c491cad804236f89cc1bada6cca0f4b2f31c7dc84022d4197886fa8a1c",
      "source_section_classification": "OPERATIVE_RULE",
      "standard_id": "adam-occds",
      "standard_name": "ADaM OCCDS Implementation Guide",
      "standard_version": "1.1",
      "structure_scope": [
        "OCCURRENCE_DATA_STRUCTURE"
      ],
      "validation_requirement": null,
      "validation_requirements": [],
      "variable_scope": [
        "ABC",
        "ACAT1",
        "ACHES",
        "ADVERSE",
        "ARELGR1",
        "ASTDT",
        "ASTDTM",
        "BODY",
        "BREATH",
        "CEPRESP",
        "CHANGED",
        "DOSE",
        "DRUG",
        "DTC",
        "DTM",
        "EVENTS",
        "INTERRUPTED",
        "ISO",
        "NOT",
        "RECOVERED",
        "RELATED",
        "RESOLVED",
        "SAFFL",
        "SAS",
        "SHORTNESS",
        "SOC",
        "SRCDOM",
        "SRCSEQ",
        "STREP",
        "STUDYID",
        "THROAT",
        "TRT01A",
        "TRTEMFL",
        "TRTSDT",
        "TRTSDTM",
        "UACN",
        "UBODSYS",
        "UDECOD",
        "UENDTC",
        "UOUT",
        "UREL",
        "USER",
        "USTDTC",
        "USUBJID",
        "UTERM",
        "UTOXGR"
      ]
    },
    {
      "applicability_conditions": [],
      "classification": "STANDARD_REQUIRED",
      "classification_status": "RESOLVED",
      "conformance_metadata": null,
      "dataset_scope": [
        "ADAE"
      ],
      "evidence_locator": {
        "duplicate_locators": [],
        "extraction_timestamp": "2026-08-10T08:11:23+00:00",
        "page": 39,
        "parser_compiler_version": "m3r-1",
        "section": null,
        "source_binding_status": "SOURCE_BOUND",
        "source_excerpt": "CDISC ADaM Structure for Occurrence Data (OCCDS) Implementation Guide (1.1 Final) \u00a9 2021 Clinical Data Interchange Standards Consortium, Inc. All rights reserved Page 39 2021-11-29 7.2 Sample ADaM Variable Metadata - Example 4 This example describes an adverse events ADaM dataset named ADAE. ADAE is not a required dataset name. Table 7.2.1 Sample ADaM Variable Metadata for Selected Variables Dataset Name Variable..."
      },
      "exact_source_excerpt": "CDISC ADaM Structure for Occurrence Data (OCCDS) Implementation Guide (1.1 Final) \u00a9 2021 Clinical Data Interchange Standards Consortium, Inc. All rights reserved Page 39 2021-11-29 7.2 Sample ADaM Variable Metadata - Example 4 This example describes an adverse events ADaM dataset named ADAE. ADAE is not a required dataset name. Table 7.2.1 Sample ADaM Variable Metadata for Selected Variables Dataset Name Variable Name Variable Label Variable Type Codelist",
      "excluded_reason": null,
      "expected_outputs": [
        "ADAE"
      ],
      "extraction_status": "CANDIDATE_RULE",
      "grain": null,
      "keys": [],
      "local_relative_source_path": "ADaM_OCCDS_Implementation_Guide v1.1.pdf",
      "normalized_atomic_requirement": "ADAE is not a required dataset name.",
      "normative_strength": "REQUIRED",
      "official_url": "https://www.cdisc.org/system/files/members/standard/foundational/ADaM_OCCDS_Implementation_Guide%20v1.1.pdf",
      "permitted_variations": [],
      "prohibited_behavior": [],
      "required_behavior": "ADAE is not a required dataset name.",
      "required_inputs": [],
      "review_status": "CANDIDATE",
      "rule_id": "adam-occds:6ff7829fa52e4a6c",
      "rule_type": "CONTROLLED_TERMINOLOGY",
      "scope": {
        "candidate_kind": "controlled_terminology",
        "dataset_scope": [
          "ADAE"
        ],
        "datasets": [
          "ADAE"
        ],
        "structure_scope": [
          "OCCURRENCE_DATA_STRUCTURE"
        ],
        "variable_scope": [],
        "variables": []
      },
      "semantic_reconstruction_status": "CANDIDATE_RECONSTRUCTED",
      "source_hash": "e5e510c491cad804236f89cc1bada6cca0f4b2f31c7dc84022d4197886fa8a1c",
      "source_section_classification": "CONTROLLED_TERMINOLOGY",
      "standard_id": "adam-occds",
      "standard_name": "ADaM OCCDS Implementation Guide",
      "standard_version": "1.1",
      "structure_scope": [
        "OCCURRENCE_DATA_STRUCTURE"
      ],
      "validation_requirement": null,
      "validation_requirements": [],
      "variable_scope": []
    },
    {
      "applicability_conditions": [
        "Required for traceability back to SDTM when rows in the dataset are created from a single SDTM domain.",
        "Used when rows in the OCCDS dataset are from multiple SDTM domains or from one or more ADaM datasets.",
        "ASEQ is useful for traceability when the OCCDS dataset is used as input to another ADaM dataset and the --SEQ variable is not included or unique.",
        "For the ADVERSE EVENT SubClass, when data from FA is used in the ADVERSE EVENT SubClass, a unique identifier variable, such as FASEQ or FASPID, is also required for traceability."
      ],
      "classification": "STANDARD_REQUIRED",
      "classification_status": "RESOLVED",
      "conformance_metadata": null,
      "dataset_scope": [],
      "evidence_locator": {
        "duplicate_locators": [],
        "extraction_timestamp": "2026-08-10T08:11:23+00:00",
        "page": 14,
        "parser_compiler_version": "m3r-1",
        "section": null,
        "source_binding_status": "SOURCE_BOUND",
        "source_excerpt": "CDISC ADaM Structure for Occurrence Data (OCCDS) Implementation Guide (1.1 Final) \u00a9 2021 Clinical Data Interchange Standards Consortium, Inc. All rights reserved Page 14 2021-11-29 Commonly, rows in an OCCDS dataset are created from a single SDTM domain. In this case, --SEQ provides all of the row identifier (and thus datapoint traceability) information: The 2-letter prefix of the variable name is the SDTM domain..."
      },
      "exact_source_excerpt": "CDISC ADaM Structure for Occurrence Data (OCCDS) Implementation Guide (1.1 Final) \u00a9 2021 Clinical Data Interchange Standards Consortium, Inc. All rights reserved Page 14 2021-11-29 Commonly, rows in an OCCDS dataset are created from a single SDTM domain. In this case, --SEQ provides all of the row identifier (and thus datapoint traceability) information: The 2-letter prefix of the variable name is the SDTM domain name, and the content is the relevant sequence number. Less commonly, rows in an OCCDS dataset are from multiple SDTM domains or from 1 or more ADaM datasets. Either the --SEQ variable from each domain can be added, or the variables SRCDOM and SRCSEQ can be used to identify the input rows. Note: SRCDOM and SRCSEQ are described in ADaMIG Section 3.3.9, Datapoint Traceability Variables, as part of BDS datapoint traceability. The BDS data-point traceability variable SRCVAR is not included in OCCDS; SRCVAR is used to hold the name of the primary variable used to derive AVAL or AVALC in BDS, but AVAL and AVALC are not applicable to OCCDS. (For additional guidance, see the ADaMIG; https://www.cdisc.org/standards/foundational/adam). Table 3.2.2.2 Row Identifier Variables Variable Name Variable Label Type Codelist Controlled Terms Core SubClass ADVERSE EVENT Core CDISC Notes --SEQ Sequence Number Num Cond Req XX.--SEQ Identifies the sequence number in SDTM domain XX that is the source for this row. This variable would be copied unchanged from the SDTM domain XX. Required for traceability back to SDTM when rows in the dataset are created from a single SDTM domain. This may be missing for derived rows. For SubClass ADVERSE EVENT, use AESEQ, copied from SDTM AE.AESEQ. SRCDOM Source Data Char Perm Not used Identifies the name of the domain or dataset that is the source for this row. If the source data is a supplemental qualifier in SDTM, this variable will contain the value of RDOMAIN in SUPP-- or SUPPQUAL. Used when rows in the OCCDS dataset are from multiple SDTM domains or from one or more ADaM datasets. Not to be used in conjunction with --SEQ. This may be missing for derived rows. For SubClass ADVERSE EVENT, AESEQ is used rather than SRCDOM and SRCSEQ. SRCSEQ Source Sequence Number Num Perm Not used Identifies the sequence number that is the source for this row. If SRCDOM is a SUPPQUAL, then this variable will contain the sequence number of the relevant related domain record. Used when rows in the OCCDS dataset are from multiple SDTM domains or from one or more ADaM datasets. Not to be used in conjunction with --SEQ. This may be missing for derived rows. For SubClass ADVERSE EVENT, AESEQ is used rather than SRCDOM and SRCSEQ. ASEQ Analysis Sequence Number Num Perm Perm Sequence number given to ensure uniqueness of subject records within an ADaM dataset. ASEQ is useful for traceability when the OCCDS dataset is used as input to another ADaM dataset and the --SEQ variable is not included or unique. ASEQ is described in more detail in ADaMIG v1.2, Section 3.3.1, Identifier Variables for BDS Datasets. For the ADVERSE EVENT SubClass, when data from FA is used in the ADVERSE EVENT SubClass, a unique identifier variable, such as FASEQ or FASPID, is also required for traceability. 3.2.3 Dictionary Coding and Categorization Variables Dictionary coding and categorization variables provided in the SDTM should be included as needed for analysis, review, or traceability. Common coding variables are provided in this section. If other coding variables are included in the SDTM and pertinent for analysis, these should be included in ADaM using a similar naming convention as shown here. For any public versioned dictionary, the metadata for each coding variable should include both the name and version of the dictionary. Common Dictionary Coding Variables for MedDRA",
      "excluded_reason": null,
      "expected_outputs": [],
      "extraction_status": "CANDIDATE_RULE",
      "grain": null,
      "keys": [
        "ADVERSE",
        "EVENT",
        "CDISC",
        "SEQ",
        "XX",
        "BDS",
        "FASEQ",
        "FASPID"
      ],
      "local_relative_source_path": "ADaM_OCCDS_Implementation_Guide v1.1.pdf",
      "normalized_atomic_requirement": "This may be missing for derived rows.",
      "normative_strength": "REQUIRED",
      "official_url": "https://www.cdisc.org/system/files/members/standard/foundational/ADaM_OCCDS_Implementation_Guide%20v1.1.pdf",
      "permitted_variations": [
        "Either the --SEQ variable from each domain can be added, or the variables SRCDOM and SRCSEQ can be used to identify the input rows.",
        "This may be missing for derived rows.",
        "3.2.3 Dictionary Coding and Categorization Variables Dictionary coding and categorization variables provided in the SDTM should be included as needed for analysis, review, or traceability.",
        "If other coding variables are included in the SDTM and pertinent for analysis, these should be included in ADaM using a similar naming convention as shown here.",
        "For any public versioned dictionary, the metadata for each coding variable should include both the name and version of the dictionary."
      ],
      "prohibited_behavior": [],
      "required_behavior": "This may be missing for derived rows.",
      "required_inputs": [
        "AE.AESEQ"
      ],
      "review_status": "CANDIDATE",
      "rule_id": "adam-occds:72a7813e3e9ac4b5",
      "rule_type": "CONTROLLED_TERMINOLOGY",
      "scope": {
        "candidate_kind": "controlled_terminology",
        "dataset_scope": [],
        "datasets": [],
        "structure_scope": [
          "BASIC_DATA_STRUCTURE",
          "OCCURRENCE_DATA_STRUCTURE"
        ],
        "variable_scope": [
          "ADVERSE",
          "AESEQ",
          "ASEQ",
          "AVAL",
          "AVALC",
          "EVENT",
          "FASEQ",
          "FASPID",
          "RDOMAIN",
          "SEQ",
          "SRCDOM",
          "SRCSEQ",
          "SRCVAR",
          "SUPP",
          "SUPPQUAL"
        ],
        "variables": [
          "ADVERSE",
          "AESEQ",
          "ASEQ",
          "AVAL",
          "AVALC",
          "EVENT",
          "FASEQ",
          "FASPID",
          "RDOMAIN",
          "SEQ",
          "SRCDOM",
          "SRCSEQ",
          "SRCVAR",
          "SUPP",
          "SUPPQUAL"
        ]
      },
      "semantic_reconstruction_status": "CANDIDATE_RECONSTRUCTED",
      "source_hash": "e5e510c491cad804236f89cc1bada6cca0f4b2f31c7dc84022d4197886fa8a1c",
      "source_section_classification": "CONTROLLED_TERMINOLOGY",
      "standard_id": "adam-occds",
      "standard_name": "ADaM OCCDS Implementation Guide",
      "standard_version": "1.1",
      "structure_scope": [
        "BASIC_DATA_STRUCTURE",
        "OCCURRENCE_DATA_STRUCTURE"
      ],
      "validation_requirement": null,
      "validation_requirements": [],
      "variable_scope": [
        "ADVERSE",
        "AESEQ",
        "ASEQ",
        "AVAL",
        "AVALC",
        "EVENT",
        "FASEQ",
        "FASPID",
        "RDOMAIN",
        "SEQ",
        "SRCDOM",
        "SRCSEQ",
        "SRCVAR",
        "SUPP",
        "SUPPQUAL"
      ]
    },
    {
      "applicability_conditions": [
        "Include these and any other SDTM variables if used in analysis."
      ],
      "classification": "STANDARD_REQUIRED",
      "classification_status": "RESOLVED",
      "conformance_metadata": null,
      "dataset_scope": [
        "ADAE"
      ],
      "evidence_locator": {
        "duplicate_locators": [],
        "extraction_timestamp": "2026-08-10T08:11:23+00:00",
        "page": 22,
        "parser_compiler_version": "m3r-1",
        "section": null,
        "source_binding_status": "SOURCE_BOUND",
        "source_excerpt": "DOSEU Treatment Dose Units Char (UNIT) Cond Cond The units associated with DOSEON and/or DOSCUMA. Conditional on whether DOSEON and/or DOSCUMA are included. aCodelists in parenthesis are the names of CDISC Controlled Terminology. 3.2.8 Descriptive Variables Variables that describe the record are often used in analysis. Include these and any other SDTM variables if used in analysis. If the analysis version of the v..."
      },
      "exact_source_excerpt": "DOSEU Treatment Dose Units Char (UNIT) Cond Cond The units associated with DOSEON and/or DOSCUMA. Conditional on whether DOSEON and/or DOSCUMA are included. aCodelists in parenthesis are the names of CDISC Controlled Terminology. 3.2.8 Descriptive Variables Variables that describe the record are often used in analysis. Include these and any other SDTM variables if used in analysis. If the analysis version of the variable differs from the version in the SDTM, additional variables must be added using the conventions below and described in Section 3.2, Variable Metadata. Table 3.2.8.1 lists some common descriptive variables that are often included in ADAE. Any other SDTM variables should be included as appropriate (e.g. AEOUT, AESDTH). Table 3.2.8.1 Adverse Event Descriptive Variables Variable Name Variable Label Type Codelista Controlled Termsb Core SubClass ADVERSE EVENT Core CDISC Notes --SER Serious Event Char (NY) Perm Req XX.--SER --SEV Severity/Intensity Char (AESEV) or (SEVRS) Perm Cond XX.--SEV For SubClass ADVERSE EVENT, conditional on whether the --SEV variable is in the SDTM AE dataset. Note that either --SEV or --TOXGR should be included in SDTM. --SEVN Severity/Intensity (N) Num 1, 2, 3 Perm Perm Code XX.--SEV to numeric Low intensity should correspond to low value ASEV Analysis Severity/Intensity Char * Perm Perm Apply imputation rules for missing severity of adverse events as specified in the SAP or metadata. May change case of text, such as from all uppercase in --SEV to mixed case in ASEV. ASEVN Analysis Severity/Intensity (N) Num 1, 2, 3 Perm Perm Code ASEV to numeric Low intensity should correspond to low value SEVGRy Pooled Severity Group y Char * Perm Perm Pooled grouping of AE severity for analysis (e.g., mild/moderate, severe) SEVGRyN Pooled Severity Group y (N) Num * Perm Perm Code SEVGRy to numeric Low intensity should correspond to low value --REL Causality Char * Perm Req XX.--REL",
      "excluded_reason": null,
      "expected_outputs": [
        "ADAE",
        "ADAE.ADVERSE",
        "ADAE.AEOUT",
        "ADAE.AESDTH",
        "ADAE.AESEV",
        "ADAE.ASEV",
        "ADAE.ASEVN",
        "ADAE.DOSCUMA",
        "ADAE.DOSEON",
        "ADAE.DOSEU",
        "ADAE.EVENT",
        "ADAE.REL",
        "ADAE.SAP",
        "ADAE.SER",
        "ADAE.SEV",
        "ADAE.SEVN",
        "ADAE.SEVRS",
        "ADAE.TOXGR",
        "ADAE.UNIT"
      ],
      "extraction_status": "CANDIDATE_RULE",
      "grain": null,
      "keys": [],
      "local_relative_source_path": "ADaM_OCCDS_Implementation_Guide v1.1.pdf",
      "normalized_atomic_requirement": "If the analysis version of the variable differs from the version in the SDTM, additional variables must be added using the conventions below and described in Section 3.2, Variable Metadata.",
      "normative_strength": "REQUIRED",
      "official_url": "https://www.cdisc.org/system/files/members/standard/foundational/ADaM_OCCDS_Implementation_Guide%20v1.1.pdf",
      "permitted_variations": [
        "Any other SDTM variables should be included as appropriate (e.g.",
        "Note that either --SEV or --TOXGR should be included in SDTM.",
        "--SEVN Severity/Intensity (N) Num 1, 2, 3 Perm Perm Code XX.--SEV to numeric Low intensity should correspond to low value ASEV Analysis Severity/Intensity Char * Perm Perm Apply imputation rules for missing severity of adverse events as specified in the SAP or metadata.",
        "May change case of text, such as from all uppercase in --SEV to mixed case in ASEV.",
        "ASEVN Analysis Severity/Intensity (N) Num 1, 2, 3 Perm Perm Code ASEV to numeric Low intensity should correspond to low value SEVGRy Pooled Severity Group y Char * Perm Perm Pooled grouping of AE severity for analysis (e.g., mild/moderate, severe) SEVGRyN Pooled Severity Group y (N) Num * Perm Perm Code SEVGRy to numeric Low intensity should correspond to low value --REL Causality Char * Perm Req XX.--REL"
      ],
      "prohibited_behavior": [],
      "required_behavior": "If the analysis version of the variable differs from the version in the SDTM, additional variables must be added using the conventions below and described in Section 3.2, Variable Metadata.",
      "required_inputs": [],
      "review_status": "CANDIDATE",
      "rule_id": "adam-occds:7f1f6cf52d4eaad1",
      "rule_type": "CONTROLLED_TERMINOLOGY",
      "scope": {
        "candidate_kind": "controlled_terminology",
        "dataset_scope": [
          "ADAE"
        ],
        "datasets": [
          "ADAE"
        ],
        "structure_scope": [],
        "variable_scope": [
          "ADVERSE",
          "AEOUT",
          "AESDTH",
          "AESEV",
          "ASEV",
          "ASEVN",
          "DOSCUMA",
          "DOSEON",
          "DOSEU",
          "EVENT",
          "REL",
          "SAP",
          "SER",
          "SEV",
          "SEVN",
          "SEVRS",
          "TOXGR",
          "UNIT"
        ],
        "variables": [
          "ADVERSE",
          "AEOUT",
          "AESDTH",
          "AESEV",
          "ASEV",
          "ASEVN",
          "DOSCUMA",
          "DOSEON",
          "DOSEU",
          "EVENT",
          "REL",
          "SAP",
          "SER",
          "SEV",
          "SEVN",
          "SEVRS",
          "TOXGR",
          "UNIT"
        ]
      },
      "semantic_reconstruction_status": "CANDIDATE_RECONSTRUCTED",
      "source_hash": "e5e510c491cad804236f89cc1bada6cca0f4b2f31c7dc84022d4197886fa8a1c",
      "source_section_classification": "CONTROLLED_TERMINOLOGY",
      "standard_id": "adam-occds",
      "standard_name": "ADaM OCCDS Implementation Guide",
      "standard_version": "1.1",
      "structure_scope": [],
      "validation_requirement": "If the analysis version of the variable differs from the version in the SDTM, additional variables must be added using the conventions below and described in Section 3.2, Variable Metadata.",
      "validation_requirements": [
        "If the analysis version of the variable differs from the version in the SDTM, additional variables must be added using the conventions below and described in Section 3.2, Variable Metadata."
      ],
      "variable_scope": [
        "ADVERSE",
        "AEOUT",
        "AESDTH",
        "AESEV",
        "ASEV",
        "ASEVN",
        "DOSCUMA",
        "DOSEON",
        "DOSEU",
        "EVENT",
        "REL",
        "SAP",
        "SER",
        "SEV",
        "SEVN",
        "SEVRS",
        "TOXGR",
        "UNIT"
      ]
    },
    {
      "applicability_conditions": [],
      "classification": "STANDARD_REQUIRED",
      "classification_status": "RESOLVED",
      "conformance_metadata": null,
      "dataset_scope": [],
      "evidence_locator": {
        "duplicate_locators": [],
        "extraction_timestamp": "2026-08-10T08:11:23+00:00",
        "page": 21,
        "parser_compiler_version": "m3r-1",
        "section": null,
        "source_binding_status": "SOURCE_BOUND",
        "source_excerpt": "CDISC ADaM Structure for Occurrence Data (OCCDS) Implementation Guide (1.1 Final) \u00a9 2021 Clinical Data Interchange Standards Consortium, Inc. All rights reserved Page 21 2021-11-29 3.2.6 Occurrence Flag Variables Occurrence flags can be used to prepare data for analysis. They are typically created by sorting the data in the required order and then flagging the first treatment- emergent record. The use of the word..."
      },
      "exact_source_excerpt": "CDISC ADaM Structure for Occurrence Data (OCCDS) Implementation Guide (1.1 Final) \u00a9 2021 Clinical Data Interchange Standards Consortium, Inc. All rights reserved Page 21 2021-11-29 3.2.6 Occurrence Flag Variables Occurrence flags can be used to prepare data for analysis. They are typically created by sorting the data in the required order and then flagging the first treatment- emergent record. The use of the word \u201cfirst\u201d in this section does not necessarily mean chronological, although that is an option. The more common occurrence flags and a structure for additional flags are shown in Tables 3.2.6.1 and 3.2.6.2. Table 3.2.6.1 OCCDS Occurrence Flag Variables Variable Name Variable Label Type Codelist Controlled Terms Core SubClass ADVERSE EVENT Core CDISC Notes AOCCFL 1st Occurrence within Subject Flag Char Y Perm Perm Character indicator for the first occurrence of any event/intervention/finding within the subject Example derivation: Sort the data in the required order and flag the first treatment emergent record for each subject. AOCCPFL 1st Occurrence of Preferred Term Flag Char Y Perm Perm Character indicator for the first occurrence of the preferred term within the subject Example derivation: Sort the data in the required order and flag the first treatment emergent record for each --DECOD for each subject. AOCCIFL 1st Max Sev./Int. Occurrence Flag Char Y Perm Perm Character indicator for the first occurrence of the event/intervention/finding with the maximum severity/intensity within the subject Example derivation: Sort the data in the required order and flag the first treatment emergent record for maximum severity for each subject. AOCCPIFL 1st Max Sev./Int. Occur Within PT Flag Char Y Perm Perm Character indicator for the first occurrence of the maximum severity/intensity within the subject and preferred term Example derivation: Sort the data in the required order and flag the first treatment emergent record for maximum severity within preferred term for each subject. AOCCzzFL 1st Occurrence of ... Char Y Perm Perm Additional flag variables as needed for analysis. Derivation rules for these flags need to be described in the metadata. Table 3.2.6.2 MedDRA Occurrence Flag Variables Variable Name Variable Label Type Codelist Controlled Terms Core SubClass ADVERSE EVENT Core CDISC Notes AOCCSFL 1st Occurrence of SOC Flag Char Y Perm Perm Character indicator for the first occurrence of the system organ class within the subject Example derivation: Sort the data in the required order and flag the first treatment- emergent record for each body system for each subject. AOCCSIFL 1st Max Sev./Int. Occur Within SOC Flag Char Y Perm Perm Character indicator for the first occurrence of the maximum severity/intensity within the subject and system organ class Example derivation: Sort the data in the required order and flag the first treatment- emergent record for maximum severity within body system for each subject.",
      "excluded_reason": null,
      "expected_outputs": [],
      "extraction_status": "CANDIDATE_RULE",
      "grain": null,
      "keys": [],
      "local_relative_source_path": "ADaM_OCCDS_Implementation_Guide v1.1.pdf",
      "normalized_atomic_requirement": "They are typically created by sorting the data in the required order and then flagging the first treatment- emergent record.",
      "normative_strength": "REQUIRED",
      "official_url": "https://www.cdisc.org/system/files/members/standard/foundational/ADaM_OCCDS_Implementation_Guide%20v1.1.pdf",
      "permitted_variations": [
        "All rights reserved Page 21 2021-11-29 3.2.6 Occurrence Flag Variables Occurrence flags can be used to prepare data for analysis."
      ],
      "prohibited_behavior": [],
      "required_behavior": "They are typically created by sorting the data in the required order and then flagging the first treatment- emergent record.",
      "required_inputs": [],
      "review_status": "CANDIDATE",
      "rule_id": "adam-occds:840a86f7c8af083b",
      "rule_type": "CONTROLLED_TERMINOLOGY",
      "scope": {
        "candidate_kind": "controlled_terminology",
        "dataset_scope": [],
        "datasets": [],
        "structure_scope": [
          "OCCURRENCE_DATA_STRUCTURE"
        ],
        "variable_scope": [
          "ADVERSE",
          "AOCCFL",
          "AOCCIFL",
          "AOCCPFL",
          "AOCCPIFL",
          "AOCCSFL",
          "AOCCSIFL",
          "DECOD",
          "EVENT",
          "SOC"
        ],
        "variables": [
          "ADVERSE",
          "AOCCFL",
          "AOCCIFL",
          "AOCCPFL",
          "AOCCPIFL",
          "AOCCSFL",
          "AOCCSIFL",
          "DECOD",
          "EVENT",
          "SOC"
        ]
      },
      "semantic_reconstruction_status": "CANDIDATE_RECONSTRUCTED",
      "source_hash": "e5e510c491cad804236f89cc1bada6cca0f4b2f31c7dc84022d4197886fa8a1c",
      "source_section_classification": "CONTROLLED_TERMINOLOGY",
      "standard_id": "adam-occds",
      "standard_name": "ADaM OCCDS Implementation Guide",
      "standard_version": "1.1",
      "structure_scope": [
        "OCCURRENCE_DATA_STRUCTURE"
      ],
      "validation_requirement": null,
      "validation_requirements": [],
      "variable_scope": [
        "ADVERSE",
        "AOCCFL",
        "AOCCIFL",
        "AOCCPFL",
        "AOCCPIFL",
        "AOCCSFL",
        "AOCCSIFL",
        "DECOD",
        "EVENT",
        "SOC"
      ]
    },
    {
      "applicability_conditions": [],
      "classification": "STANDARD_GUIDED",
      "classification_status": "RESOLVED",
      "conformance_metadata": null,
      "dataset_scope": [
        "ADSL"
      ],
      "evidence_locator": {
        "duplicate_locators": [],
        "extraction_timestamp": "2026-08-10T08:11:23+00:00",
        "page": 68,
        "parser_compiler_version": "m3r-1",
        "section": null,
        "source_binding_status": "SOURCE_BOUND",
        "source_excerpt": "Baseline 0 2 ABC-102 ADPAIN MAJOR PROTOCOL DEVIATION Subject has only 3 daily worst knee pain scores recorded in the source data between days -7 to days -1 Less than 4 pain scores recorded in diary on Days --7 through Day -1 (Baseline) Baseline 0 3 ABC-104 ADSL MAJOR PROTOCOL DEVIATION Subject has only 26 days of treatment Less than 28 Days of Treatment 10JAN2017 4 ABC-112 ADSL MAJOR PROTOCOL DEVIATION Subject was..."
      },
      "exact_source_excerpt": "Baseline 0 2 ABC-102 ADPAIN MAJOR PROTOCOL DEVIATION Subject has only 3 daily worst knee pain scores recorded in the source data between days -7 to days -1 Less than 4 pain scores recorded in diary on Days --7 through Day -1 (Baseline) Baseline 0 3 ABC-104 ADSL MAJOR PROTOCOL DEVIATION Subject has only 26 days of treatment Less than 28 Days of Treatment 10JAN2017 4 ABC-112 ADSL MAJOR PROTOCOL DEVIATION Subject was 75% compliant with study drug Less than 80% Overall Compliance with Study Drug 23JAN2017 5 ABC-221 33 ADVS MINOR PROTOCOL DEVIATION Visit Out of (+/-3 Day) Window Visit Out of (+/-3 Day) Window 12FEB2017 Week 4 4 6 ABC-221 21 ADEG MINOR PROTOCOL DEVIATION Visit Out of (+/-3 Day) Window Visit Out of (+/-3 Day) Window 16MAR2017 Week 8 8 7 ABC-301 1 IE MAJOR PROTOCOL DEVIATION Male or female adult, 40 to 75 years of age, inclusive, at the time of screening Entered but did not satisfy criteria 05JAN2017 8 ABC-402 1 DV MINOR PROTOCOL DEVIATION Subject ABC-402 was missing a radiographic assessment and Kellgren-Lawrence classification of osteoarthritis in target knee (Grade 2-3) Skipped or missed assessment/procedure 20MAR2017 aVariables ending in DT are numeric dates, here shown using SAS date format date9. Other numeric date formats can be used, but care should be taken with newer date formats which might not be understood by all statistical packages.",
      "excluded_reason": null,
      "expected_outputs": [
        "ADSL",
        "ADSL.ABC",
        "ADSL.ADEG",
        "ADSL.ADPAIN",
        "ADSL.ADVS",
        "ADSL.DEVIATION",
        "ADSL.MAJOR",
        "ADSL.MINOR",
        "ADSL.PROTOCOL",
        "ADSL.SAS"
      ],
      "extraction_status": "CANDIDATE_RULE",
      "grain": null,
      "keys": [],
      "local_relative_source_path": "ADaM_OCCDS_Implementation_Guide v1.1.pdf",
      "normalized_atomic_requirement": "Other numeric date formats can be used, but care should be taken with newer date formats which might not be understood by all statistical packages.",
      "normative_strength": "GUIDED",
      "official_url": "https://www.cdisc.org/system/files/members/standard/foundational/ADaM_OCCDS_Implementation_Guide%20v1.1.pdf",
      "permitted_variations": [
        "Other numeric date formats can be used, but care should be taken with newer date formats which might not be understood by all statistical packages."
      ],
      "prohibited_behavior": [],
      "required_behavior": "Other numeric date formats can be used, but care should be taken with newer date formats which might not be understood by all statistical packages.",
      "required_inputs": [],
      "review_status": "CANDIDATE",
      "rule_id": "adam-occds:9e733cc013b20bfb",
      "rule_type": "OPERATIVE_RULE",
      "scope": {
        "candidate_kind": "variable_requirement",
        "dataset_scope": [
          "ADSL"
        ],
        "datasets": [
          "ADSL"
        ],
        "structure_scope": [],
        "variable_scope": [
          "ABC",
          "ADEG",
          "ADPAIN",
          "ADVS",
          "DEVIATION",
          "MAJOR",
          "MINOR",
          "PROTOCOL",
          "SAS"
        ],
        "variables": [
          "ABC",
          "ADEG",
          "ADPAIN",
          "ADVS",
          "DEVIATION",
          "MAJOR",
          "MINOR",
          "PROTOCOL",
          "SAS"
        ]
      },
      "semantic_reconstruction_status": "CANDIDATE_RECONSTRUCTED",
      "source_hash": "e5e510c491cad804236f89cc1bada6cca0f4b2f31c7dc84022d4197886fa8a1c",
      "source_section_classification": "OPERATIVE_RULE",
      "standard_id": "adam-occds",
      "standard_name": "ADaM OCCDS Implementation Guide",
      "standard_version": "1.1",
      "structure_scope": [],
      "validation_requirement": null,
      "validation_requirements": [],
      "variable_scope": [
        "ABC",
        "ADEG",
        "ADPAIN",
        "ADVS",
        "DEVIATION",
        "MAJOR",
        "MINOR",
        "PROTOCOL",
        "SAS"
      ]
    },
    {
      "applicability_conditions": [],
      "classification": "STANDARD_REQUIRED",
      "classification_status": "RESOLVED",
      "conformance_metadata": null,
      "dataset_scope": [
        "ADAE"
      ],
      "evidence_locator": {
        "duplicate_locators": [],
        "extraction_timestamp": "2026-08-10T08:11:23+00:00",
        "page": 36,
        "parser_compiler_version": "m3r-1",
        "section": null,
        "source_binding_status": "SOURCE_BOUND",
        "source_excerpt": "aThe style of the display of the results of an analysis is determined by the producer. This example is intended to illustrate content, not appearance. 6.2 Sample ADaM Variable Metadata - Example 3 This example describes an Adverse Events ADaM dataset named ADAE. ADAE is not a required dataset name. Table 6.2.1: Sample ADaM Variable Metadata for Selected Variables Dataset Name Variable Name Variable Label Variable..."
      },
      "exact_source_excerpt": "aThe style of the display of the results of an analysis is determined by the producer. This example is intended to illustrate content, not appearance. 6.2 Sample ADaM Variable Metadata - Example 3 This example describes an Adverse Events ADaM dataset named ADAE. ADAE is not a required dataset name. Table 6.2.1: Sample ADaM Variable Metadata for Selected Variables Dataset Name Variable Name Variable Label Variable Type Codelist",
      "excluded_reason": null,
      "expected_outputs": [
        "ADAE"
      ],
      "extraction_status": "CANDIDATE_RULE",
      "grain": null,
      "keys": [],
      "local_relative_source_path": "ADaM_OCCDS_Implementation_Guide v1.1.pdf",
      "normalized_atomic_requirement": "ADAE is not a required dataset name.",
      "normative_strength": "REQUIRED",
      "official_url": "https://www.cdisc.org/system/files/members/standard/foundational/ADaM_OCCDS_Implementation_Guide%20v1.1.pdf",
      "permitted_variations": [],
      "prohibited_behavior": [],
      "required_behavior": "ADAE is not a required dataset name.",
      "required_inputs": [],
      "review_status": "CANDIDATE",
      "rule_id": "adam-occds:a479606f8e8078a6",
      "rule_type": "CONTROLLED_TERMINOLOGY",
      "scope": {
        "candidate_kind": "controlled_terminology",
        "dataset_scope": [
          "ADAE"
        ],
        "datasets": [
          "ADAE"
        ],
        "structure_scope": [],
        "variable_scope": [],
        "variables": []
      },
      "semantic_reconstruction_status": "CANDIDATE_RECONSTRUCTED",
      "source_hash": "e5e510c491cad804236f89cc1bada6cca0f4b2f31c7dc84022d4197886fa8a1c",
      "source_section_classification": "CONTROLLED_TERMINOLOGY",
      "standard_id": "adam-occds",
      "standard_name": "ADaM OCCDS Implementation Guide",
      "standard_version": "1.1",
      "structure_scope": [],
      "validation_requirement": null,
      "validation_requirements": [],
      "variable_scope": []
    },
    {
      "applicability_conditions": [
        "ASTDT Analysis Start Date Num Cond Req Created from converting XX.--STDTC from character ISO 8601 format to numeric date format, applying imputation rules if specified in the statistical analysis plan (SAP) or metadata Conditional on whether start date is pertinent for study and is populated in SDTM ASTTM Analysis Start Time Num Cond Cond Created from converting XX.--STDTC from character ISO 8601 format to numeric time format, applying imputation rules if specified in the SAP or metadata Conditional on whether start time is pertinent for study and is populated in SDTM ASTDTM Analysis Start Datetime Num Cond Cond Created from converting XX.--STDTC from character ISO 8601 format to numeric datetime format, applying imputation rules if specified in the SAP or metadata Conditional on whether start datetime is pertinent for study and is populated in SDTM ASTDTF Analysis Start Date Imputation Flag Char (DATEFL) Cond Cond The level of imputation of analysis start date.",
        "AENDT Analysis End Date Num Cond Req Created from converting XX.--ENDTC from character ISO 8601 format to numeric date format, applying imputation rules if specified in the SAP or metadata Conditional on whether end date is pertinent for study and is populated in SDTM AENTM Analysis End Time Num Cond Cond Created from converting XX.--ENDTC from character ISO 8601 format to numeric time format, applying imputation rules if specified in the SAP or metadata Conditional on whether end time is pertinent for study and is populated in SDTM AENDTM Analysis End Datetime Num Cond Cond Created from converting XX.--ENDTC from character ISO 8601 format to numeric datetime format, applying imputation rules if specified in the SAP or metadata Conditional on whether end datetime is pertinent for study and is populated in SDTM AENDTF Analysis End Date Imputation Flag Char (DATEFL) Cond Cond The level of imputation of analysis end date."
      ],
      "classification": "STANDARD_GUIDED",
      "classification_status": "RESOLVED",
      "conformance_metadata": null,
      "dataset_scope": [],
      "evidence_locator": {
        "duplicate_locators": [],
        "extraction_timestamp": "2026-08-10T08:11:23+00:00",
        "page": 17,
        "parser_compiler_version": "m3r-1",
        "section": null,
        "source_binding_status": "SOURCE_BOUND",
        "source_excerpt": "CDISC ADaM Structure for Occurrence Data (OCCDS) Implementation Guide (1.1 Final) \u00a9 2021 Clinical Data Interchange Standards Consortium, Inc. All rights reserved Page 17 2021-11-29 3.2.4 Timing Variables Timing variables are copied from the SDTM and derived within ADaM. Common timing variables are provided in this section. If other timing variables are collected in SDTM and pertinent for analysis, these should be..."
      },
      "exact_source_excerpt": "CDISC ADaM Structure for Occurrence Data (OCCDS) Implementation Guide (1.1 Final) \u00a9 2021 Clinical Data Interchange Standards Consortium, Inc. All rights reserved Page 17 2021-11-29 3.2.4 Timing Variables Timing variables are copied from the SDTM and derived within ADaM. Common timing variables are provided in this section. If other timing variables are collected in SDTM and pertinent for analysis, these should be included in ADaM. Additional timing variables, such as those for period start and end dates, can be included. For more details on timing variables, see ADaMIG Section 3.3.3, Timing Variables for BDS Datasets. Table 3.2.4.1 Timing Variables Variable Name Variable Label Type Codelista Controlled Terms Core SubClass ADVERSE EVENT Core CDISC Notes --STDTC Start Date/Time of Observation Char ISO 8601 Cond Req Copied from XX.\u2013STDTC Conditional on whether start date is pertinent for study and is populated in SDTM This variable label differs depending on the SDTM domain. See SDTM v1.7 Section 2.2.5, Timing Variables for All Classes, and SDTMIG v3.3 Section 6, Domain Models Based on the General Observation Classes for details. ASTDT Analysis Start Date Num Cond Req Created from converting XX.--STDTC from character ISO 8601 format to numeric date format, applying imputation rules if specified in the statistical analysis plan (SAP) or metadata Conditional on whether start date is pertinent for study and is populated in SDTM ASTTM Analysis Start Time Num Cond Cond Created from converting XX.--STDTC from character ISO 8601 format to numeric time format, applying imputation rules if specified in the SAP or metadata Conditional on whether start time is pertinent for study and is populated in SDTM ASTDTM Analysis Start Datetime Num Cond Cond Created from converting XX.--STDTC from character ISO 8601 format to numeric datetime format, applying imputation rules if specified in the SAP or metadata Conditional on whether start datetime is pertinent for study and is populated in SDTM ASTDTF Analysis Start Date Imputation Flag Char (DATEFL) Cond Cond The level of imputation of analysis start date. Imputation flags are described in ADaMIG v1.2 Section 3.1.3, Date and Time Imputation Flag Variables. Conditional on whether ASTDT (or the date part of ASTDTM) was imputed ASTTMF Analysis Start Time Imputation Flag Char (TIMEFL) Cond Cond The level of imputation of analysis start time. Imputation flags are described in ADaMIG v1.2 Section 3.1.3, Date and Time Imputation Flag Variables. Conditional on whether ASTTM (or the time part of ASTDTM) was imputed --ENDTC End Date/Time of Observation Char ISO 8601 Cond Req Copied from XX.--ENDTC Conditional on whether end date is pertinent for study and is populated in SDTM This variable label differs depending on the SDTM domain. See SDTM v1.7 Section 2.2.5, Timing Variables for All Classes, and SDTMIG v3.3 Section 6, Domain Models Based on the General Observation Classes, for details. AENDT Analysis End Date Num Cond Req Created from converting XX.--ENDTC from character ISO 8601 format to numeric date format, applying imputation rules if specified in the SAP or metadata Conditional on whether end date is pertinent for study and is populated in SDTM AENTM Analysis End Time Num Cond Cond Created from converting XX.--ENDTC from character ISO 8601 format to numeric time format, applying imputation rules if specified in the SAP or metadata Conditional on whether end time is pertinent for study and is populated in SDTM AENDTM Analysis End Datetime Num Cond Cond Created from converting XX.--ENDTC from character ISO 8601 format to numeric datetime format, applying imputation rules if specified in the SAP or metadata Conditional on whether end datetime is pertinent for study and is populated in SDTM AENDTF Analysis End Date Imputation Flag Char (DATEFL) Cond Cond The level of imputation of analysis end date. Imputation flags are described in the ADaMIG v1.2 Section 3.1.3, Date and Time Imputation Flag Variables. Conditional on whether AENDT (or the date part of AENDTM) was imputed AENTMF Analysis End Time Imputation Flag Char (TIMEFL) Cond Cond The level of imputation of analysis end time. Imputation flags are described in the ADaMIG v1.2 Section 3.1.3, Date and Time Imputation Flag Variables. Conditional on whether AENTM (or the date part of AENDTM) was imputed",
      "excluded_reason": null,
      "expected_outputs": [],
      "extraction_status": "CANDIDATE_RULE",
      "grain": null,
      "keys": [],
      "local_relative_source_path": "ADaM_OCCDS_Implementation_Guide v1.1.pdf",
      "normalized_atomic_requirement": "If other timing variables are collected in SDTM and pertinent for analysis, these should be included in ADaM.",
      "normative_strength": "GUIDED",
      "official_url": "https://www.cdisc.org/system/files/members/standard/foundational/ADaM_OCCDS_Implementation_Guide%20v1.1.pdf",
      "permitted_variations": [
        "If other timing variables are collected in SDTM and pertinent for analysis, these should be included in ADaM.",
        "Additional timing variables, such as those for period start and end dates, can be included."
      ],
      "prohibited_behavior": [],
      "required_behavior": "If other timing variables are collected in SDTM and pertinent for analysis, these should be included in ADaM.",
      "required_inputs": [],
      "review_status": "CANDIDATE",
      "rule_id": "adam-occds:b3952ce4e4d802d8",
      "rule_type": "CONTROLLED_TERMINOLOGY",
      "scope": {
        "candidate_kind": "controlled_terminology",
        "dataset_scope": [],
        "datasets": [],
        "structure_scope": [
          "BASIC_DATA_STRUCTURE",
          "OCCURRENCE_DATA_STRUCTURE"
        ],
        "variable_scope": [
          "ADVERSE",
          "AENDT",
          "AENDTF",
          "AENDTM",
          "AENTM",
          "AENTMF",
          "ASTDT",
          "ASTDTF",
          "ASTDTM",
          "ASTTM",
          "ASTTMF",
          "DATEFL",
          "ENDTC",
          "EVENT",
          "ISO",
          "SAP",
          "SDTMIG",
          "STDTC",
          "TIMEFL"
        ],
        "variables": [
          "ADVERSE",
          "AENDT",
          "AENDTF",
          "AENDTM",
          "AENTM",
          "AENTMF",
          "ASTDT",
          "ASTDTF",
          "ASTDTM",
          "ASTTM",
          "ASTTMF",
          "DATEFL",
          "ENDTC",
          "EVENT",
          "ISO",
          "SAP",
          "SDTMIG",
          "STDTC",
          "TIMEFL"
        ]
      },
      "semantic_reconstruction_status": "CANDIDATE_RECONSTRUCTED",
      "source_hash": "e5e510c491cad804236f89cc1bada6cca0f4b2f31c7dc84022d4197886fa8a1c",
      "source_section_classification": "CONTROLLED_TERMINOLOGY",
      "standard_id": "adam-occds",
      "standard_name": "ADaM OCCDS Implementation Guide",
      "standard_version": "1.1",
      "structure_scope": [
        "BASIC_DATA_STRUCTURE",
        "OCCURRENCE_DATA_STRUCTURE"
      ],
      "validation_requirement": null,
      "validation_requirements": [],
      "variable_scope": [
        "ADVERSE",
        "AENDT",
        "AENDTF",
        "AENDTM",
        "AENTM",
        "AENTMF",
        "ASTDT",
        "ASTDTF",
        "ASTDTM",
        "ASTTM",
        "ASTTMF",
        "DATEFL",
        "ENDTC",
        "EVENT",
        "ISO",
        "SAP",
        "SDTMIG",
        "STDTC",
        "TIMEFL"
      ]
    },
    {
      "applicability_conditions": [],
      "classification": "STANDARD_REQUIRED",
      "classification_status": "RESOLVED",
      "conformance_metadata": null,
      "dataset_scope": [],
      "evidence_locator": {
        "duplicate_locators": [],
        "extraction_timestamp": "2026-08-10T08:11:23+00:00",
        "page": 15,
        "parser_compiler_version": "m3r-1",
        "section": null,
        "source_binding_status": "SOURCE_BOUND",
        "source_excerpt": "CDISC ADaM Structure for Occurrence Data (OCCDS) Implementation Guide (1.1 Final) \u00a9 2021 Clinical Data Interchange Standards Consortium, Inc. All rights reserved Page 15 2021-11-29 MedDRA coding is typically used for adverse events and medical history. Copy the needed MedDRA terms and codes from SDTM to the analysis dataset. For the SubClass ADVERSE EVENT, it is required that all levels of terms for the primary pa..."
      },
      "exact_source_excerpt": "CDISC ADaM Structure for Occurrence Data (OCCDS) Implementation Guide (1.1 Final) \u00a9 2021 Clinical Data Interchange Standards Consortium, Inc. All rights reserved Page 15 2021-11-29 MedDRA coding is typically used for adverse events and medical history. Copy the needed MedDRA terms and codes from SDTM to the analysis dataset. For the SubClass ADVERSE EVENT, it is required that all levels of terms for the primary path in the MedDRA hierarchy\u2014System Organ Class (SOC), High Level Group Term (HLGT), High Level Term (HLT), Lowest Level Term (LLT), and Preferred Term (PT)\u2014be included. For other OCCDS datasets, these variables are recommended (they are frequently useful in further analyses of events), but not required. Table 3.2.3.1 MedDRA Dictionary Coding Variables Variable Name Variable Label Type Codelist Controlled Terms Core SubClass ADVERSE EVENT Core CDISC Notes --TERM Reported Term Char Req Req Copied from XX.--TERM This variable label differs depending on the SDTM domain. See SDTM v1.7 Section 2.2.2, The Events Observation Class, and SDTMIG v3.3 Section 6.2, Models for Events Domains, for details. --DECOD Dictionary-Derived Term Char MedDRA Cond Req Copied from XX.--DECOD This variable is typically one of the primary variables used in an analysis and would be brought in from the SDTM domain. Equivalent to the MedDRA PT. All other SDTM domain variables and supplemental qualifiers needed for analysis or traceability should also be included. Include the dictionary version in the metadata. Conditional on whether coded and used for analysis. Required for adverse event data. --BODSYS Body System or Organ Class Char MedDRA Cond Req Copied from XX.--BODSYS Include the dictionary version in the metadata. Conditional on whether coded and used for analysis. Required for adverse event data. --BDSYCD Body System or Organ Class Code Num MedDRA Perm Req Copied from XX.--BDSYCD or the supplemental qualifier This would be copied from the SDTM domain XX or supplemental qualifier dataset. Include the dictionary version in the metadata. --LLT Lowest Level Term Char MedDRA Cond Req Copied from XX.-- LLT or the supplemental qualifier Include the dictionary version in the metadata. Conditional on whether coded and used for analysis. --LLTCD Lowest Level Term Code Num MedDRA Perm Req Copied from XX.--LLTCD or the supplemental qualifier Include the dictionary version in the metadata. --PTCD Preferred Term Code Num MedDRA Perm Req Copied from XX.--PTCD or the supplemental qualifier Include the dictionary version in the metadata. --HLT High Level Term Char MedDRA Cond Req Copied from XX.--HLT or the supplemental qualifier Include the dictionary version in the metadata. Conditional on whether used for analysis. --HLTCD High Level Term Code Num MedDRA Perm Req Copied from XX.--HLTCD or the supplemental qualifier Include the dictionary version in the metadata. --HLGT High Level Group Term Char MedDRA Cond Req Copied from XX.--HLGT or the supplemental qualifier Include the dictionary version in the metadata. Conditional on whether used for analysis. -\u2011HLGTCD High Level Group Term Code Num MedDRA Perm Req Copied from XX.--HLGTCD or the supplemental qualifier Include the dictionary version in the metadata. --SOC Primary System Organ Class Char MedDRA Cond Req Copied from XX.--SOC or the supplemental qualifier Include the dictionary version in the metadata. Conditional on whether a secondary SOC was used for analysis. --SOCCD Primary System Organ Class Code Num MedDRA Perm Req Copied from XX.--SOCCD or the supplemental qualifier Include the dictionary version in the metadata. Note: MedDRA allows a term to be represented in more than 1 SOC (e.g., primary and, in some cases, secondary coding paths). See Section 8, Example 5: MedDRA Secondary Path, for an example layout for a possible way to handle the need to report on secondary paths along with primary paths.",
      "excluded_reason": null,
      "expected_outputs": [],
      "extraction_status": "CANDIDATE_RULE",
      "grain": null,
      "keys": [],
      "local_relative_source_path": "ADaM_OCCDS_Implementation_Guide v1.1.pdf",
      "normalized_atomic_requirement": "For the SubClass ADVERSE EVENT, it is required that all levels of terms for the primary path in the MedDRA hierarchy\u2014System Organ Class (SOC), High Level Group Term (HLGT), High Level Term (HLT), Lowest Level Term (LLT), and Preferred Term (PT)\u2014be included.",
      "normative_strength": "REQUIRED",
      "official_url": "https://www.cdisc.org/system/files/members/standard/foundational/ADaM_OCCDS_Implementation_Guide%20v1.1.pdf",
      "permitted_variations": [
        "All other SDTM domain variables and supplemental qualifiers needed for analysis or traceability should also be included."
      ],
      "prohibited_behavior": [],
      "required_behavior": "For the SubClass ADVERSE EVENT, it is required that all levels of terms for the primary path in the MedDRA hierarchy\u2014System Organ Class (SOC), High Level Group Term (HLGT), High Level Term (HLT), Lowest Level Term (LLT), and Preferred Term (PT)\u2014be included.",
      "required_inputs": [],
      "review_status": "CANDIDATE",
      "rule_id": "adam-occds:b7872dd4ebaaa5b6",
      "rule_type": "CONTROLLED_TERMINOLOGY",
      "scope": {
        "candidate_kind": "controlled_terminology",
        "dataset_scope": [],
        "datasets": [],
        "structure_scope": [
          "OCCURRENCE_DATA_STRUCTURE"
        ],
        "variable_scope": [
          "ADVERSE",
          "BDSYCD",
          "BODSYS",
          "DECOD",
          "EVENT",
          "HLGT",
          "HLGTCD",
          "HLT",
          "HLTCD",
          "LLT",
          "LLTCD",
          "PTCD",
          "SDTMIG",
          "SOC",
          "SOCCD",
          "TERM"
        ],
        "variables": [
          "ADVERSE",
          "BDSYCD",
          "BODSYS",
          "DECOD",
          "EVENT",
          "HLGT",
          "HLGTCD",
          "HLT",
          "HLTCD",
          "LLT",
          "LLTCD",
          "PTCD",
          "SDTMIG",
          "SOC",
          "SOCCD",
          "TERM"
        ]
      },
      "semantic_reconstruction_status": "CANDIDATE_RECONSTRUCTED",
      "source_hash": "e5e510c491cad804236f89cc1bada6cca0f4b2f31c7dc84022d4197886fa8a1c",
      "source_section_classification": "CONTROLLED_TERMINOLOGY",
      "standard_id": "adam-occds",
      "standard_name": "ADaM OCCDS Implementation Guide",
      "standard_version": "1.1",
      "structure_scope": [
        "OCCURRENCE_DATA_STRUCTURE"
      ],
      "validation_requirement": null,
      "validation_requirements": [],
      "variable_scope": [
        "ADVERSE",
        "BDSYCD",
        "BODSYS",
        "DECOD",
        "EVENT",
        "HLGT",
        "HLGTCD",
        "HLT",
        "HLTCD",
        "LLT",
        "LLTCD",
        "PTCD",
        "SDTMIG",
        "SOC",
        "SOCCD",
        "TERM"
      ]
    },
    {
      "applicability_conditions": [
        "In addition, if a time-to-event (TTE) analysis is built using adverse events, the flags provide a crucial link between the summary records in the TTE BDS and the source of the records in ADAE."
      ],
      "classification": "STANDARD_GUIDED",
      "classification_status": "RESOLVED",
      "conformance_metadata": null,
      "dataset_scope": [
        "ADAE",
        "ADSL"
      ],
      "evidence_locator": {
        "duplicate_locators": [],
        "extraction_timestamp": "2026-08-10T08:11:23+00:00",
        "page": 30,
        "parser_compiler_version": "m3r-1",
        "section": null,
        "source_binding_status": "SOURCE_BOUND",
        "source_excerpt": "CDISC ADaM Structure for Occurrence Data (OCCDS) Implementation Guide (1.1 Final) \u00a9 2021 Clinical Data Interchange Standards Consortium, Inc. All rights reserved Page 30 2021-11-29 Dataset Name Variable Name Variable Label Variable Type Codelist Controlled Terms Source Derivation ADAE RACE Race text BLACK OR AFRICAN AMERICAN, AMERICAN INDIAN OR ALASKA NATIVE, ASIAN, NATIVE HAWAIIAN OR OTHER PACIFIC ISLANDER, WHITE..."
      },
      "exact_source_excerpt": "CDISC ADaM Structure for Occurrence Data (OCCDS) Implementation Guide (1.1 Final) \u00a9 2021 Clinical Data Interchange Standards Consortium, Inc. All rights reserved Page 30 2021-11-29 Dataset Name Variable Name Variable Label Variable Type Codelist Controlled Terms Source Derivation ADAE RACE Race text BLACK OR AFRICAN AMERICAN, AMERICAN INDIAN OR ALASKA NATIVE, ASIAN, NATIVE HAWAIIAN OR OTHER PACIFIC ISLANDER, WHITE ADSL.RACE 4.3 Sample ADaM Data - Example 1 Table 4.3.1 illustrates the adverse events analysis dataset (ADAE) defined in Section 4.2, Sample ADaM Variable Metadata - Example 1. The ADAE dataset in this example was designed to support some standard subsets and/or classifications of treatment-emergent adverse events including seriousness, severity, and relationship to study drug. The example describes some of the key variables and records that would be included in the dataset. Key points to note in the example are: 1. The producer of the dataset chose to use a record-level actual treatment variable (TRTA) populated with the same value across all rows in the dataset rather than a subject-level treatment variable (TRT01A). For a parallel design, either TRTA or TRT01A could be used as the actual treatment identifier. The producer interpreted TRTA as the treatment associated with the record for analysis display purposes and populated the pre-treatment records with treatment even though subjects had not yet received treatment at that time. 2. Variables such as AESEQ, AETERM, and AESTDTC are copied in from the SDTM AE domain to provide data-point traceability. 3. Variables such as AEBODSYS, AEDECOD, AESER, AESEV, and AEREL are copied in from the SDTM AE domain for analysis purposes. 4. ASTDT is the AE timing variable used for analysis. Other timing variables (e.g., AENDT, ASTDTF, AENDTF, AESTDTC, AEENDTC, TRTSDT, TRTEDT) are supportive variables for metadata traceability. 5. The addition of ASEV and RELGR1 allows for the imputation of missing severity and grouping and imputation of relationship to study drug as specified in the statistical analysis plan (SAP). 6. The occurrence flags (AOCC*FL) are permissible. The main purpose of these flags is to facilitate data-point traceability between records in the dataset and unique counts in the summary displays. In addition, if a time-to-event (TTE) analysis is built using adverse events, the flags provide a crucial link between the summary records in the TTE BDS and the source of the records in ADAE. 7. The core variables of AGE, AGEGR1, SEX, and RACE are included in ADAE to facilitate subgroup analyses and data review.",
      "excluded_reason": null,
      "expected_outputs": [
        "ADAE",
        "ADAE.RACE",
        "ADSL",
        "ADSL.RACE"
      ],
      "extraction_status": "CANDIDATE_RULE",
      "grain": null,
      "keys": [],
      "local_relative_source_path": "ADaM_OCCDS_Implementation_Guide v1.1.pdf",
      "normalized_atomic_requirement": "CDISC ADaM Structure for Occurrence Data (OCCDS) Implementation Guide (1.1 Final) \u00a9 2021 Clinical Data Interchange Standards Consortium, Inc. All rights reserved Page 30 2021-11-29 Dataset Name Variable Name Variable Label Variable Type Codelist Controlled Terms Source Derivation ADAE RACE Race text BLACK OR AFRICAN AMERICAN, AMERICAN INDIAN OR ALASKA NAT...",
      "normative_strength": "GUIDED",
      "official_url": "https://www.cdisc.org/system/files/members/standard/foundational/ADaM_OCCDS_Implementation_Guide%20v1.1.pdf",
      "permitted_variations": [
        "All rights reserved Page 30 2021-11-29 Dataset Name Variable Name Variable Label Variable Type Codelist Controlled Terms Source Derivation ADAE RACE Race text BLACK OR AFRICAN AMERICAN, AMERICAN INDIAN OR ALASKA NATIVE, ASIAN, NATIVE HAWAIIAN OR OTHER PACIFIC ISLANDER, WHITE ADSL.RACE 4.3 Sample ADaM Data - Example 1 Table 4.3.1 illustrates the adverse events analysis dataset (ADAE) defined in Section 4.2, Sample..."
      ],
      "prohibited_behavior": [],
      "required_behavior": "CDISC ADaM Structure for Occurrence Data (OCCDS) Implementation Guide (1.1 Final) \u00a9 2021 Clinical Data Interchange Standards Consortium, Inc. All rights reserved Page 30 2021-11-29 Dataset Name Variable Name Variable Label Variable Type Codelist Controlled Terms Source Derivation ADAE RACE Race text BLACK OR AFRICAN AMERICAN, AMERICAN INDIAN OR ALASKA NAT...",
      "required_inputs": [],
      "review_status": "CANDIDATE",
      "rule_id": "adam-occds:ba2816bf210e5203",
      "rule_type": "CONTROLLED_TERMINOLOGY",
      "scope": {
        "candidate_kind": "controlled_terminology",
        "dataset_scope": [
          "ADAE",
          "ADSL"
        ],
        "datasets": [
          "ADAE",
          "ADSL"
        ],
        "structure_scope": [
          "BASIC_DATA_STRUCTURE",
          "OCCURRENCE_DATA_STRUCTURE"
        ],
        "variable_scope": [
          "RACE"
        ],
        "variables": [
          "RACE"
        ]
      },
      "semantic_reconstruction_status": "CANDIDATE_RECONSTRUCTED",
      "source_hash": "e5e510c491cad804236f89cc1bada6cca0f4b2f31c7dc84022d4197886fa8a1c",
      "source_section_classification": "CONTROLLED_TERMINOLOGY",
      "standard_id": "adam-occds",
      "standard_name": "ADaM OCCDS Implementation Guide",
      "standard_version": "1.1",
      "structure_scope": [
        "BASIC_DATA_STRUCTURE",
        "OCCURRENCE_DATA_STRUCTURE"
      ],
      "validation_requirement": null,
      "validation_requirements": [],
      "variable_scope": [
        "RACE"
      ]
    },
    {
      "applicability_conditions": [],
      "classification": "STANDARD_REQUIRED",
      "classification_status": "RESOLVED",
      "conformance_metadata": null,
      "dataset_scope": [],
      "evidence_locator": {
        "duplicate_locators": [],
        "extraction_timestamp": "2026-08-10T08:11:23+00:00",
        "page": 47,
        "parser_compiler_version": "m3r-1",
        "section": null,
        "source_binding_status": "SOURCE_BOUND",
        "source_excerpt": "CDISC ADaM Structure for Occurrence Data (OCCDS) Implementation Guide (1.1 Final) \u00a9 2021 Clinical Data Interchange Standards Consortium, Inc. All rights reserved Page 47 2021-11-29 9.3 Sample ADaM Variable Metadata - Example 6 This example describes an adverse events ADaM dataset named ADAEFA with SubClass ADVERSE EVENT. ADAEFA is not a required dataset name. ADAEFA is used to demonstrate that the input data is fr..."
      },
      "exact_source_excerpt": "CDISC ADaM Structure for Occurrence Data (OCCDS) Implementation Guide (1.1 Final) \u00a9 2021 Clinical Data Interchange Standards Consortium, Inc. All rights reserved Page 47 2021-11-29 9.3 Sample ADaM Variable Metadata - Example 6 This example describes an adverse events ADaM dataset named ADAEFA with SubClass ADVERSE EVENT. ADAEFA is not a required dataset name. ADAEFA is used to demonstrate that the input data is from both AE and FA. Table 9.3.1 Sample ADaM Variable Metadata for Selected Variables Variable Name Variable Label Variable Type Codelist",
      "excluded_reason": null,
      "expected_outputs": [],
      "extraction_status": "CANDIDATE_RULE",
      "grain": null,
      "keys": [],
      "local_relative_source_path": "ADaM_OCCDS_Implementation_Guide v1.1.pdf",
      "normalized_atomic_requirement": "ADAEFA is not a required dataset name.",
      "normative_strength": "REQUIRED",
      "official_url": "https://www.cdisc.org/system/files/members/standard/foundational/ADaM_OCCDS_Implementation_Guide%20v1.1.pdf",
      "permitted_variations": [],
      "prohibited_behavior": [],
      "required_behavior": "ADAEFA is not a required dataset name.",
      "required_inputs": [],
      "review_status": "CANDIDATE",
      "rule_id": "adam-occds:c2ee5f086b319685",
      "rule_type": "CONTROLLED_TERMINOLOGY",
      "scope": {
        "candidate_kind": "controlled_terminology",
        "dataset_scope": [],
        "datasets": [],
        "structure_scope": [
          "OCCURRENCE_DATA_STRUCTURE"
        ],
        "variable_scope": [
          "ADAEFA",
          "ADVERSE",
          "EVENT"
        ],
        "variables": [
          "ADAEFA",
          "ADVERSE",
          "EVENT"
        ]
      },
      "semantic_reconstruction_status": "CANDIDATE_RECONSTRUCTED",
      "source_hash": "e5e510c491cad804236f89cc1bada6cca0f4b2f31c7dc84022d4197886fa8a1c",
      "source_section_classification": "CONTROLLED_TERMINOLOGY",
      "standard_id": "adam-occds",
      "standard_name": "ADaM OCCDS Implementation Guide",
      "standard_version": "1.1",
      "structure_scope": [
        "OCCURRENCE_DATA_STRUCTURE"
      ],
      "validation_requirement": null,
      "validation_requirements": [],
      "variable_scope": [
        "ADAEFA",
        "ADVERSE",
        "EVENT"
      ]
    },
    {
      "applicability_conditions": [],
      "classification": "STANDARD_REQUIRED",
      "classification_status": "RESOLVED",
      "conformance_metadata": null,
      "dataset_scope": [],
      "evidence_locator": {
        "duplicate_locators": [],
        "extraction_timestamp": "2026-08-10T08:11:23+00:00",
        "page": 59,
        "parser_compiler_version": "m3r-1",
        "section": null,
        "source_binding_status": "SOURCE_BOUND",
        "source_excerpt": "aThe style of the display of the results of an analysis is determined by the producer. The example is intended to illustrate content, not appearance. 12.2 Sample ADaM Variable Metadata - Example 9 This example describes a Medical History ADaM dataset named ADMH. ADMH is not a required dataset name. Table 12.2.1 Example of ADaM Variable Metadata Dataset Name Variable Name Variable Label Variable Type Codelist Contr..."
      },
      "exact_source_excerpt": "aThe style of the display of the results of an analysis is determined by the producer. The example is intended to illustrate content, not appearance. 12.2 Sample ADaM Variable Metadata - Example 9 This example describes a Medical History ADaM dataset named ADMH. ADMH is not a required dataset name. Table 12.2.1 Example of ADaM Variable Metadata Dataset Name Variable Name Variable Label Variable Type Codelist Controlled Terms Source Derivation ADMH STUDYID Study Identifier text MH.STUDYID ADMH USUBJID Unique Subject Identifier text MH.USUBJID ADMH MHSEQ Sequence Number integer MH.MHSEQ ADMH MHCAT Category for Medical History text MH.MHCAT",
      "excluded_reason": null,
      "expected_outputs": [],
      "extraction_status": "CANDIDATE_RULE",
      "grain": null,
      "keys": [
        "MH"
      ],
      "local_relative_source_path": "ADaM_OCCDS_Implementation_Guide v1.1.pdf",
      "normalized_atomic_requirement": "ADMH is not a required dataset name.",
      "normative_strength": "REQUIRED",
      "official_url": "https://www.cdisc.org/system/files/members/standard/foundational/ADaM_OCCDS_Implementation_Guide%20v1.1.pdf",
      "permitted_variations": [],
      "prohibited_behavior": [],
      "required_behavior": "ADMH is not a required dataset name.",
      "required_inputs": [],
      "review_status": "CANDIDATE",
      "rule_id": "adam-occds:c41ef444fb8c8d70",
      "rule_type": "CONTROLLED_TERMINOLOGY",
      "scope": {
        "candidate_kind": "controlled_terminology",
        "dataset_scope": [],
        "datasets": [],
        "structure_scope": [],
        "variable_scope": [
          "ADMH",
          "MHCAT",
          "MHSEQ",
          "STUDYID",
          "USUBJID"
        ],
        "variables": [
          "ADMH",
          "MHCAT",
          "MHSEQ",
          "STUDYID",
          "USUBJID"
        ]
      },
      "semantic_reconstruction_status": "CANDIDATE_RECONSTRUCTED",
      "source_hash": "e5e510c491cad804236f89cc1bada6cca0f4b2f31c7dc84022d4197886fa8a1c",
      "source_section_classification": "CONTROLLED_TERMINOLOGY",
      "standard_id": "adam-occds",
      "standard_name": "ADaM OCCDS Implementation Guide",
      "standard_version": "1.1",
      "structure_scope": [],
      "validation_requirement": null,
      "validation_requirements": [],
      "variable_scope": [
        "ADMH",
        "MHCAT",
        "MHSEQ",
        "STUDYID",
        "USUBJID"
      ]
    },
    {
      "applicability_conditions": [
        "All rights reserved Page 18 2021-11-29 Variable Name Variable Label Type Codelista Controlled Terms Core SubClass ADVERSE EVENT Core CDISC Notes ASTDY Analysis Start Relative Day Num Cond Req The number of days from an anchor date (not necessarily DM.RFSTDTC) to ASTDT Example derivation: ASTDT - ADSL.TRTSDT + 1 if ASTDT >= ADSL.TRTSDT, else ASTDT - ADSL.TRTSDT if ASTDT< ADSL.TRTSDT This variable may instead be copied from --STDY.",
        "For SubClass ADVERSE EVENT, conditional on whether the AESTDY variable is in the SDTM AE dataset AENDY Analysis End Relative Day Num Perm Req The number of days from an anchor date (not necessarily DM.RFSTDTC) to AENDT Example derivation: AENDT - ADSL.TRTSDT + 1 if AENDT >= ADSL.TRTSDT, else AENDT - ADSL.TRTSDT if AENDT < ADSL.TRTSDT This variable may instead be copied from --ENDY."
      ],
      "classification": "STANDARD_REQUIRED",
      "classification_status": "RESOLVED",
      "conformance_metadata": null,
      "dataset_scope": [
        "ADSL"
      ],
      "evidence_locator": {
        "duplicate_locators": [],
        "extraction_timestamp": "2026-08-10T08:11:23+00:00",
        "page": 18,
        "parser_compiler_version": "m3r-1",
        "section": null,
        "source_binding_status": "SOURCE_BOUND",
        "source_excerpt": "CDISC ADaM Structure for Occurrence Data (OCCDS) Implementation Guide (1.1 Final) \u00a9 2021 Clinical Data Interchange Standards Consortium, Inc. All rights reserved Page 18 2021-11-29 Variable Name Variable Label Type Codelista Controlled Terms Core SubClass ADVERSE EVENT Core CDISC Notes ASTDY Analysis Start Relative Day Num Cond Req The number of days from an anchor date (not necessarily DM.RFSTDTC) to ASTDT Exampl..."
      },
      "exact_source_excerpt": "CDISC ADaM Structure for Occurrence Data (OCCDS) Implementation Guide (1.1 Final) \u00a9 2021 Clinical Data Interchange Standards Consortium, Inc. All rights reserved Page 18 2021-11-29 Variable Name Variable Label Type Codelista Controlled Terms Core SubClass ADVERSE EVENT Core CDISC Notes ASTDY Analysis Start Relative Day Num Cond Req The number of days from an anchor date (not necessarily DM.RFSTDTC) to ASTDT Example derivation: ASTDT - ADSL.TRTSDT + 1 if ASTDT >= ADSL.TRTSDT, else ASTDT - ADSL.TRTSDT if ASTDT< ADSL.TRTSDT This variable may instead be copied from --STDY. Conditional on whether analysis start relative day is pertinent to the study --STDY Study Day of Start of Observation* Num Perm Cond Copied from XX.--STDY ASTDY may differ from --STDY due to date imputation and the option in ADaM to use a reference date other than SDTM\u2019s RFSTDTC. Including XX.--STDY in addition to ASTDY adds traceability. For SubClass ADVERSE EVENT, conditional on whether the AESTDY variable is in the SDTM AE dataset AENDY Analysis End Relative Day Num Perm Req The number of days from an anchor date (not necessarily DM.RFSTDTC) to AENDT Example derivation: AENDT - ADSL.TRTSDT + 1 if AENDT >= ADSL.TRTSDT, else AENDT - ADSL.TRTSDT if AENDT < ADSL.TRTSDT This variable may instead be copied from --ENDY. --ENDY Study Day of End of Observation* Num Perm Cond Copied from XX.--ENDY AENDY may differ from --ENDY due to date imputation and the option in ADaM to use a reference date other than SDTM\u2019s RFSTDTC. Including XX.--ENDY in addition to AENDY adds traceability. For SubClass ADVERSE EVENT, conditional on whether the AEENDY variable is in the SDTM AE dataset ADURN Analysis Duration (N) Num Perm Perm Derive from ASTDT (or ASTDTM) and AENDT (or AENDTM). ADURU Analysis Duration Units Char (UNIT) Cond Cond Conditional on whether ADURN is included --DUR Duration of XX Char ISO 8601 Perm Cond Copied from XX.--DUR Because --DUR is a collected field and ADURN is derived, the values will often differ. Including XX.--DUR in addition to ADURN adds traceability. For SubClass ADVERSE EVENT, conditional on whether the AEDUR variable is in the SDTM AE dataset APERIOD Period Num Perm Cond APERIOD is a record-level timing variable that represents the analysis period within the study associated with the record for analysis purposes. The value of APERIOD (if populated) must be one of the xx values found in the ADSL TRTxxP variables. See ADaMIG v1.2 Section 3.3.3, Timing Variables for BDS variables for more information on this variable. For SubClass ADVERSE EVENT, conditional on whether multiple analysis periods are defined for the study APERIODC Period (C) Char Perm Perm Text characterizing to which period the record belongs. One-to-one map to APERIOD. APHASE Phase Char Perm Perm APHASE is a categorization of timing within a study, for example a higher-level categorization of APERIOD or an analysis epoch. For example, APHASE could describe spans of time for SCREENING, ON TREATMENT, and FOLLOW-UP. See the ADaM Implementation Guide v1.2 for more information on this variable. aCodelists in parenthesis are the names of CDISC Controlled Terminology.",
      "excluded_reason": null,
      "expected_outputs": [
        "ADSL",
        "ADSL.TRTSDT"
      ],
      "extraction_status": "CANDIDATE_RULE",
      "grain": null,
      "keys": [],
      "local_relative_source_path": "ADaM_OCCDS_Implementation_Guide v1.1.pdf",
      "normalized_atomic_requirement": "All rights reserved Page 18 2021-11-29 Variable Name Variable Label Type Codelista Controlled Terms Core SubClass ADVERSE EVENT Core CDISC Notes ASTDY Analysis Start Relative Day Num Cond Req The number of days from an anchor date (not necessarily DM.RFSTDTC) to ASTDT Example derivation: ASTDT - ADSL.TRTSDT + 1 if ASTDT >= ADSL.TRTSDT, else ASTDT - ADSL.T...",
      "normative_strength": "REQUIRED",
      "official_url": "https://www.cdisc.org/system/files/members/standard/foundational/ADaM_OCCDS_Implementation_Guide%20v1.1.pdf",
      "permitted_variations": [
        "All rights reserved Page 18 2021-11-29 Variable Name Variable Label Type Codelista Controlled Terms Core SubClass ADVERSE EVENT Core CDISC Notes ASTDY Analysis Start Relative Day Num Cond Req The number of days from an anchor date (not necessarily DM.RFSTDTC) to ASTDT Example derivation: ASTDT - ADSL.TRTSDT + 1 if ASTDT >= ADSL.TRTSDT, else ASTDT - ADSL.TRTSDT if ASTDT< ADSL.TRTSDT This variable may instead be cop...",
        "Conditional on whether analysis start relative day is pertinent to the study --STDY Study Day of Start of Observation* Num Perm Cond Copied from XX.--STDY ASTDY may differ from --STDY due to date imputation and the option in ADaM to use a reference date other than SDTM\u2019s RFSTDTC.",
        "For SubClass ADVERSE EVENT, conditional on whether the AESTDY variable is in the SDTM AE dataset AENDY Analysis End Relative Day Num Perm Req The number of days from an anchor date (not necessarily DM.RFSTDTC) to AENDT Example derivation: AENDT - ADSL.TRTSDT + 1 if AENDT >= ADSL.TRTSDT, else AENDT - ADSL.TRTSDT if AENDT < ADSL.TRTSDT This variable may instead be copied from --ENDY.",
        "--ENDY Study Day of End of Observation* Num Perm Cond Copied from XX.--ENDY AENDY may differ from --ENDY due to date imputation and the option in ADaM to use a reference date other than SDTM\u2019s RFSTDTC."
      ],
      "prohibited_behavior": [],
      "required_behavior": "All rights reserved Page 18 2021-11-29 Variable Name Variable Label Type Codelista Controlled Terms Core SubClass ADVERSE EVENT Core CDISC Notes ASTDY Analysis Start Relative Day Num Cond Req The number of days from an anchor date (not necessarily DM.RFSTDTC) to ASTDT Example derivation: ASTDT - ADSL.TRTSDT + 1 if ASTDT >= ADSL.TRTSDT, else ASTDT - ADSL.T...",
      "required_inputs": [
        "DM.RFSTDTC"
      ],
      "review_status": "CANDIDATE",
      "rule_id": "adam-occds:caccc5634e226d27",
      "rule_type": "CONTROLLED_TERMINOLOGY",
      "scope": {
        "candidate_kind": "controlled_terminology",
        "dataset_scope": [
          "ADSL"
        ],
        "datasets": [
          "ADSL"
        ],
        "structure_scope": [
          "BASIC_DATA_STRUCTURE",
          "OCCURRENCE_DATA_STRUCTURE"
        ],
        "variable_scope": [
          "TRTSDT"
        ],
        "variables": [
          "TRTSDT"
        ]
      },
      "semantic_reconstruction_status": "CANDIDATE_RECONSTRUCTED",
      "source_hash": "e5e510c491cad804236f89cc1bada6cca0f4b2f31c7dc84022d4197886fa8a1c",
      "source_section_classification": "CONTROLLED_TERMINOLOGY",
      "standard_id": "adam-occds",
      "standard_name": "ADaM OCCDS Implementation Guide",
      "standard_version": "1.1",
      "structure_scope": [
        "BASIC_DATA_STRUCTURE",
        "OCCURRENCE_DATA_STRUCTURE"
      ],
      "validation_requirement": "The value of APERIOD (if populated) must be one of the xx values found in the ADSL TRTxxP variables.",
      "validation_requirements": [
        "The value of APERIOD (if populated) must be one of the xx values found in the ADSL TRTxxP variables."
      ],
      "variable_scope": [
        "TRTSDT"
      ]
    },
    {
      "applicability_conditions": [
        "For clarity, the following conventions are used: \u2022 When referring to the 2-letter prefix in variable names, the standard convention is to use \u201c--\u201d, as described in SDTM v1.7 (available at https://www.cdisc.org/standards/foundational/sdtm) Section 2.2, The General Observation Classes.",
        "Take care when creating actual metadata to replace \u201c--\u201d, \u201cXX\u201d, and generic variable labels with the actual 2-letter domain code and label from the SDTM.",
        "See Section 1.1, Purpose , for examples of when the analysis data structure might not be one record per record in SDTM domain.) AE Occurrence Data Structure Adverse Event OCCURRENCE DATA STRUCTURE ADVERSE EVENT Datasets in the SubClass ADVERSE EVENT must have a Class of OCCURRENCE DATA STRUCTURE and meet all the principles of that class."
      ],
      "classification": "STANDARD_REQUIRED",
      "classification_status": "RESOLVED",
      "conformance_metadata": null,
      "dataset_scope": [
        "ADSL"
      ],
      "evidence_locator": {
        "duplicate_locators": [],
        "extraction_timestamp": "2026-08-10T08:11:23+00:00",
        "page": 11,
        "parser_compiler_version": "m3r-1",
        "section": null,
        "source_binding_status": "SOURCE_BOUND",
        "source_excerpt": "CDISC ADaM Structure for Occurrence Data (OCCDS) Implementation Guide (1.1 Final) \u00a9 2021 Clinical Data Interchange Standards Consortium, Inc. All rights reserved Page 11 2021-11-29 3 ADaM Metadata As described in ADaM Section 4.1.2, Analysis Dataset and Variable Naming Conventions (available at https://www.cdisc.org/standards/foundational/adam), variables that are copied from SDTM must have the same variable name,..."
      },
      "exact_source_excerpt": "CDISC ADaM Structure for Occurrence Data (OCCDS) Implementation Guide (1.1 Final) \u00a9 2021 Clinical Data Interchange Standards Consortium, Inc. All rights reserved Page 11 2021-11-29 3 ADaM Metadata As described in ADaM Section 4.1.2, Analysis Dataset and Variable Naming Conventions (available at https://www.cdisc.org/standards/foundational/adam), variables that are copied from SDTM must have the same variable name, label, values, and meaning as in SDTM. Because the OCCDS can be used for adverse events, concomitant medications, and other occurrence data, metadata shown in this section reference different SDTM domains. For clarity, the following conventions are used: \u2022 When referring to the 2-letter prefix in variable names, the standard convention is to use \u201c--\u201d, as described in SDTM v1.7 (available at https://www.cdisc.org/standards/foundational/sdtm) Section 2.2, The General Observation Classes. \u2022 The \u201c--\u201d convention was intended for variable names, not domain names, and \u201c--\u201d is difficult to read in the documentation for SDTM domain names. This document uses the convention of \u201cXX\u201d to represent a domain name, as was done in the ADaM Examples in Commonly Used Statistical Analysis Methods document (https://www.cdisc.org/standards/foundational/adam/ ). \u2022 Variable labels that differ depending on SDTM domain are referenced by a note at the end of the relevant table. Take care when creating actual metadata to replace \u201c--\u201d, \u201cXX\u201d, and generic variable labels with the actual 2-letter domain code and label from the SDTM. 3.1 Dataset Metadata Typically, the analysis data structure for an OCCDS dataset is specified as follows: Table 3.1.1 Data Structure Data Structure Name Data Structure Description Class of Dataset SubClass of Dataset CDISC Notes OCCDS Occurrence Data Structure OCCURRENCE DATA STRUCTURE Generally these are 1 record per record in SDTM domain (optional: per coding path, per Analysis Period and/or Phase. See Section 1.1, Purpose , for examples of when the analysis data structure might not be one record per record in SDTM domain.) AE Occurrence Data Structure Adverse Event OCCURRENCE DATA STRUCTURE ADVERSE EVENT Datasets in the SubClass ADVERSE EVENT must have a Class of OCCURRENCE DATA STRUCTURE and meet all the principles of that class. The SDTM input dataset for the ADVERSE EVENT SubClass is always AE, with some additional information from SUPPAE, FA, and ADSL. See Section 3.1.2, SubClass ADVERSE EVENT , for more details. The Data Structure Name, Data Structure Description, and CDISC Notes are intended to provide information to assist producers in preparing their datasets and are not intended to be metadata submitted in define.xml. 3.1.1 Example Define-XML v2.1 ADaM Datasets Beginning with Define-XML v2.1 (available at https://www.cdisc.org/standards/data-exchange/define-xml), dataset metadata can include SubClass in addition to Class. SubClass has controlled terminology, and one of the allowed terms is \u201cADVERSE EVENT\u201d. Table 3.1.1.1 shows how the SubClass of \u201cADVERSE EVENT\u201d is used within the ADaM dataset metadata.",
      "excluded_reason": null,
      "expected_outputs": [
        "ADSL",
        "ADSL.ADVERSE",
        "ADSL.DATA",
        "ADSL.EVENT",
        "ADSL.OCCURRENCE",
        "ADSL.STRUCTURE",
        "ADSL.SUPPAE",
        "ADSL.XML"
      ],
      "extraction_status": "CANDIDATE_RULE",
      "grain": "one record per record in SDTM domain",
      "keys": [],
      "local_relative_source_path": "ADaM_OCCDS_Implementation_Guide v1.1.pdf",
      "normalized_atomic_requirement": "All rights reserved Page 11 2021-11-29 3 ADaM Metadata As described in ADaM Section 4.1.2, Analysis Dataset and Variable Naming Conventions (available at https://www.cdisc.org/standards/foundational/adam), variables that are copied from SDTM must have the same variable name, label, values, and meaning as in SDTM.",
      "normative_strength": "REQUIRED",
      "official_url": "https://www.cdisc.org/system/files/members/standard/foundational/ADaM_OCCDS_Implementation_Guide%20v1.1.pdf",
      "permitted_variations": [
        "Because the OCCDS can be used for adverse events, concomitant medications, and other occurrence data, metadata shown in this section reference different SDTM domains.",
        "3.1 Dataset Metadata Typically, the analysis data structure for an OCCDS dataset is specified as follows: Table 3.1.1 Data Structure Data Structure Name Data Structure Description Class of Dataset SubClass of Dataset CDISC Notes OCCDS Occurrence Data Structure OCCURRENCE DATA STRUCTURE Generally these are 1 record per record in SDTM domain (optional: per coding path, per Analysis Period and/or Phase.",
        "3.1.1 Example Define-XML v2.1 ADaM Datasets Beginning with Define-XML v2.1 (available at https://www.cdisc.org/standards/data-exchange/define-xml), dataset metadata can include SubClass in addition to Class."
      ],
      "prohibited_behavior": [],
      "required_behavior": "All rights reserved Page 11 2021-11-29 3 ADaM Metadata As described in ADaM Section 4.1.2, Analysis Dataset and Variable Naming Conventions (available at https://www.cdisc.org/standards/foundational/adam), variables that are copied from SDTM must have the same variable name, label, values, and meaning as in SDTM.",
      "required_inputs": [],
      "review_status": "CANDIDATE",
      "rule_id": "adam-occds:d06aedb42b91c1ad",
      "rule_type": "CONTROLLED_TERMINOLOGY",
      "scope": {
        "candidate_kind": "controlled_terminology",
        "dataset_scope": [
          "ADSL"
        ],
        "datasets": [
          "ADSL"
        ],
        "structure_scope": [
          "OCCURRENCE_DATA_STRUCTURE"
        ],
        "variable_scope": [
          "ADVERSE",
          "DATA",
          "EVENT",
          "OCCURRENCE",
          "STRUCTURE",
          "SUPPAE",
          "XML"
        ],
        "variables": [
          "ADVERSE",
          "DATA",
          "EVENT",
          "OCCURRENCE",
          "STRUCTURE",
          "SUPPAE",
          "XML"
        ]
      },
      "semantic_reconstruction_status": "CANDIDATE_RECONSTRUCTED",
      "source_hash": "e5e510c491cad804236f89cc1bada6cca0f4b2f31c7dc84022d4197886fa8a1c",
      "source_section_classification": "CONTROLLED_TERMINOLOGY",
      "standard_id": "adam-occds",
      "standard_name": "ADaM OCCDS Implementation Guide",
      "standard_version": "1.1",
      "structure_scope": [
        "OCCURRENCE_DATA_STRUCTURE"
      ],
      "validation_requirement": "All rights reserved Page 11 2021-11-29 3 ADaM Metadata As described in ADaM Section 4.1.2, Analysis Dataset and Variable Naming Conventions (available at https://www.cdisc.org/standards/foundational/adam), variables that are copied from SDTM must have the same variable name, label, values, and meaning as in SDTM.",
      "validation_requirements": [
        "All rights reserved Page 11 2021-11-29 3 ADaM Metadata As described in ADaM Section 4.1.2, Analysis Dataset and Variable Naming Conventions (available at https://www.cdisc.org/standards/foundational/adam), variables that are copied from SDTM must have the same variable name, label, values, and meaning as in SDTM.",
        "See Section 1.1, Purpose , for examples of when the analysis data structure might not be one record per record in SDTM domain.) AE Occurrence Data Structure Adverse Event OCCURRENCE DATA STRUCTURE ADVERSE EVENT Datasets in the SubClass ADVERSE EVENT must have a Class of OCCURRENCE DATA STRUCTURE and meet all the principles of that class."
      ],
      "variable_scope": [
        "ADVERSE",
        "DATA",
        "EVENT",
        "OCCURRENCE",
        "STRUCTURE",
        "SUPPAE",
        "XML"
      ]
    },
    {
      "applicability_conditions": [
        "Conditional, based on analysis at multiple levels (y) Other Categorization Variables When categories are used for the intended analysis, instead of or in addition to MedDRA or WHO Drug, these generic categorization variables are commonly used: Table 3.2.3.3 Other Categorization Variables Variable Name Variable Label Type Codelist Controlled Terms Core SubClass ADVERSE EVENT Core CDISC Notes --CAT Category Char Perm Perm Copied from XX.--CAT This variable label differs depending on the SDTM domain."
      ],
      "classification": "STANDARD_GUIDED",
      "classification_status": "RESOLVED",
      "conformance_metadata": null,
      "dataset_scope": [],
      "evidence_locator": {
        "duplicate_locators": [],
        "extraction_timestamp": "2026-08-10T08:11:23+00:00",
        "page": 16,
        "parser_compiler_version": "m3r-1",
        "section": null,
        "source_binding_status": "SOURCE_BOUND",
        "source_excerpt": "CDISC ADaM Structure for Occurrence Data (OCCDS) Implementation Guide (1.1 Final) \u00a9 2021 Clinical Data Interchange Standards Consortium, Inc. All rights reserved Page 16 2021-11-29 Common Dictionary Coding Variables for WHO Drug WHO Drug coding is typically used for concomitant medications. Copy to the analysis dataset the needed WHO Drug terms and codes from SDTM CM and SUPPCM. The variables shown in Table 3.2.3...."
      },
      "exact_source_excerpt": "CDISC ADaM Structure for Occurrence Data (OCCDS) Implementation Guide (1.1 Final) \u00a9 2021 Clinical Data Interchange Standards Consortium, Inc. All rights reserved Page 16 2021-11-29 Common Dictionary Coding Variables for WHO Drug WHO Drug coding is typically used for concomitant medications. Copy to the analysis dataset the needed WHO Drug terms and codes from SDTM CM and SUPPCM. The variables shown in Table 3.2.3.2 are intended for a single WHO Drug coding path. Table 3.2.3.2 WHO Drug Dictionary Coding Variables Variable Name Variable Label Type Codelist Controlled Terms Core SubClass ADVERSE EVENT Core CDISC Notes CMTRT Reported Name of Drug, Med, or Therapy Char Req Not Used CM.CMTRT CMDECOD Standardized Medication Name Char WHO Drug Cond Not Used CM.CMDECOD This is typically one of the primary variables used in CM analysis and would be copied from the SDTM CM domain. Include the dictionary version in the variable metadata. Conditional on whether coded and used for analysis. CMCLAS Medication Class Char Perm Not Used CM.CMCLAS Include the dictionary version in the metadata. CMCLASCD Medication Class Code Char Perm Not Used CM.CMCLASCD Include the dictionary version in the metadata. ATCy ATC Level y Text Char WHO Drug Cond Not Used Corresponds to the ATC Level Text for WHO Drug. Include the dictionary version in the variable metadata. Conditional, based on analysis at multiple levels (y) ATCyCD ATC Level y Code Char WHO Drug Cond Not Used Corresponds to the ATC Level Code for WHO Drug. Include the dictionary version in the variable metadata. Conditional, based on analysis at multiple levels (y) Other Categorization Variables When categories are used for the intended analysis, instead of or in addition to MedDRA or WHO Drug, these generic categorization variables are commonly used: Table 3.2.3.3 Other Categorization Variables Variable Name Variable Label Type Codelist Controlled Terms Core SubClass ADVERSE EVENT Core CDISC Notes --CAT Category Char Perm Perm Copied from XX.--CAT This variable label differs depending on the SDTM domain. See SDTM v1.7 Section 2.2, The General Observation Classes, and SDTMIG v3.3 Section 6, Domain Models Based on the General Observation Classes, for details. --SCAT Subcategory Char Perm Perm Copied from XX.--SCAT This variable label differs depending on the SDTM domain. See SDTM v1.7 Section 2.2, The General Observation Classes, and SDTMIG v3.3 Section 6, Domain Models Based on the General Observation Classes, for details. ACATy Analysis Category y Char Perm Perm Category used in analysis. May be derived from --CAT and/or --SCAT. Examples include records of special interest like prohibited medications, concomitant medications taken during an infusion reaction, growth factors, antimicrobial medications, and other such categories not defined elsewhere or present in SDTM domains.",
      "excluded_reason": null,
      "expected_outputs": [],
      "extraction_status": "CANDIDATE_RULE",
      "grain": null,
      "keys": [],
      "local_relative_source_path": "ADaM_OCCDS_Implementation_Guide v1.1.pdf",
      "normalized_atomic_requirement": "CDISC ADaM Structure for Occurrence Data (OCCDS) Implementation Guide (1.1 Final) \u00a9 2021 Clinical Data Interchange Standards Consortium, Inc. All rights reserved Page 16 2021-11-29 Common Dictionary Coding Variables for WHO Drug WHO Drug coding is typically used for concomitant medications. Copy to the analysis dataset the needed WHO Drug terms and codes...",
      "normative_strength": "GUIDED",
      "official_url": "https://www.cdisc.org/system/files/members/standard/foundational/ADaM_OCCDS_Implementation_Guide%20v1.1.pdf",
      "permitted_variations": [
        "May be derived from --CAT and/or --SCAT."
      ],
      "prohibited_behavior": [
        "Examples include records of special interest like prohibited medications, concomitant medications taken during an infusion reaction, growth factors, antimicrobial medications, and other such categories not defined elsewhere or present in SDTM domains."
      ],
      "required_behavior": "CDISC ADaM Structure for Occurrence Data (OCCDS) Implementation Guide (1.1 Final) \u00a9 2021 Clinical Data Interchange Standards Consortium, Inc. All rights reserved Page 16 2021-11-29 Common Dictionary Coding Variables for WHO Drug WHO Drug coding is typically used for concomitant medications. Copy to the analysis dataset the needed WHO Drug terms and codes...",
      "required_inputs": [],
      "review_status": "CANDIDATE",
      "rule_id": "adam-occds:d828481d9d744d27",
      "rule_type": "CONTROLLED_TERMINOLOGY",
      "scope": {
        "candidate_kind": "controlled_terminology",
        "dataset_scope": [],
        "datasets": [],
        "structure_scope": [
          "OCCURRENCE_DATA_STRUCTURE"
        ],
        "variable_scope": [
          "ADVERSE",
          "ATC",
          "CAT",
          "CMCLAS",
          "CMCLASCD",
          "CMDECOD",
          "CMTRT",
          "EVENT",
          "SCAT",
          "SDTMIG",
          "SUPPCM",
          "WHO"
        ],
        "variables": [
          "ADVERSE",
          "ATC",
          "CAT",
          "CMCLAS",
          "CMCLASCD",
          "CMDECOD",
          "CMTRT",
          "EVENT",
          "SCAT",
          "SDTMIG",
          "SUPPCM",
          "WHO"
        ]
      },
      "semantic_reconstruction_status": "CANDIDATE_RECONSTRUCTED",
      "source_hash": "e5e510c491cad804236f89cc1bada6cca0f4b2f31c7dc84022d4197886fa8a1c",
      "source_section_classification": "CONTROLLED_TERMINOLOGY",
      "standard_id": "adam-occds",
      "standard_name": "ADaM OCCDS Implementation Guide",
      "standard_version": "1.1",
      "structure_scope": [
        "OCCURRENCE_DATA_STRUCTURE"
      ],
      "validation_requirement": null,
      "validation_requirements": [],
      "variable_scope": [
        "ADVERSE",
        "ATC",
        "CAT",
        "CMCLAS",
        "CMCLASCD",
        "CMDECOD",
        "CMTRT",
        "EVENT",
        "SCAT",
        "SDTMIG",
        "SUPPCM",
        "WHO"
      ]
    },
    {
      "applicability_conditions": [
        "ATOXGRN Analysis Toxicity Grade (N) Num * Perm Perm Code ATOXGR to numeric Low toxicity should correspond to low value TOXGGRy Pooled Toxicity Grade Group y Char * Perm Perm Pooled grouping of toxicity grade for analysis TOXGGRyN Pooled Toxicity Grade Group y (N) Num * Perm Perm Code of TOXGGRy to numeric Low toxicity should correspond to low value --ACN Action Taken with Study Treatment Char (ACN) Perm Cond XX.--ACN Required if XX.--ACN is present and populated aCodelists in parenthesis are the names of CDISC Controlled Terminology."
      ],
      "classification": "STANDARD_REQUIRED",
      "classification_status": "RESOLVED",
      "conformance_metadata": null,
      "dataset_scope": [],
      "evidence_locator": {
        "duplicate_locators": [],
        "extraction_timestamp": "2026-08-10T08:11:23+00:00",
        "page": 23,
        "parser_compiler_version": "m3r-1",
        "section": null,
        "source_binding_status": "SOURCE_BOUND",
        "source_excerpt": "CDISC ADaM Structure for Occurrence Data (OCCDS) Implementation Guide (1.1 Final) \u00a9 2021 Clinical Data Interchange Standards Consortium, Inc. All rights reserved Page 23 2021-11-29 Variable Name Variable Label Type Codelista Controlled Termsb Core SubClass ADVERSE EVENT Core CDISC Notes --RELN Causality (N) Num * Perm Perm Code XX.--REL to numeric Low relation should correspond to low value AREL Analysis Causality..."
      },
      "exact_source_excerpt": "CDISC ADaM Structure for Occurrence Data (OCCDS) Implementation Guide (1.1 Final) \u00a9 2021 Clinical Data Interchange Standards Consortium, Inc. All rights reserved Page 23 2021-11-29 Variable Name Variable Label Type Codelista Controlled Termsb Core SubClass ADVERSE EVENT Core CDISC Notes --RELN Causality (N) Num * Perm Perm Code XX.--REL to numeric Low relation should correspond to low value AREL Analysis Causality Char * Perm Perm Apply imputation rules for missing causality of study drug as specified in the SAP or metadata. May change case of text, such as from all uppercase in --REL to mixed case in AREL. ARELN Analysis Causality (N) Num * Perm Perm Code AREL to numeric RELGRy Pooled Causality Group y Char * Perm Perm Pooled grouping of causality of study drug for analysis (e.g. related, not related) RELGRyN Pooled Causality Group y (N) Num * Perm Perm Code of RELGRy to numeric Low relation should correspond to low value --TOXGR Standard Toxicity Grade Char * Perm Cond XX.--TOXGR For SubClass ADVERSE EVENT, conditional on whether the --TOXGR variable is in the SDTM AE dataset. Note that either --SEV or --TOXGR should be included in SDTM. --TOXGRN Standard Toxicity Grade (N) Num * Perm Perm Code --TOXGR to numeric Low toxicity should correspond to low value ATOXGR Analysis Toxicity Grade Char * Perm Perm Toxicity grade for analysis. May be based on --TOXGR or an imputed or assigned value. May change case of text, such as from all uppercase in --TOXGR to mixed case in ATOXGR. ATOXGRN Analysis Toxicity Grade (N) Num * Perm Perm Code ATOXGR to numeric Low toxicity should correspond to low value TOXGGRy Pooled Toxicity Grade Group y Char * Perm Perm Pooled grouping of toxicity grade for analysis TOXGGRyN Pooled Toxicity Grade Group y (N) Num * Perm Perm Code of TOXGGRy to numeric Low toxicity should correspond to low value --ACN Action Taken with Study Treatment Char (ACN) Perm Cond XX.--ACN Required if XX.--ACN is present and populated aCodelists in parenthesis are the names of CDISC Controlled Terminology. bAsterisk indicates variable may be subject to producer-defined controlled terminology. Medical history data typically does not contain descriptive variables. If needed for analysis, use variables as shown in Table 3.2.8.1 for adverse events, replacing the prefix \u201cAE\u201d with \u201cMH\u201d. Table 3.2.8.2 lists some common descriptive variables that are often included in ADCM. Any other SDTM variables should be included as appropriate. Table 3.2.8.2 Concomitant Medications Descriptive Variables Variable Name Variable Label Type Codelist Controlled Terms Core CDISC Notes --STAT Completion Status Char Perm XX.--STAT --INDC Indication Char Perm XX.--INDC --DOSE Dose per Administration Num Perm XX.--DOSE --DOSFRM Dose Form Char Perm XX.--DOSFRM --DOSRGM Intended Dose Regimen Char Perm XX.--DOSRGM --ROUTE Route of Administration Char Perm XX.--ROUTE Concomitant medication descriptive variables are not used in the ADVERSE EVENT SubClass.",
      "excluded_reason": null,
      "expected_outputs": [],
      "extraction_status": "CANDIDATE_RULE",
      "grain": null,
      "keys": [],
      "local_relative_source_path": "ADaM_OCCDS_Implementation_Guide v1.1.pdf",
      "normalized_atomic_requirement": "All rights reserved Page 23 2021-11-29 Variable Name Variable Label Type Codelista Controlled Termsb Core SubClass ADVERSE EVENT Core CDISC Notes --RELN Causality (N) Num * Perm Perm Code XX.--REL to numeric Low relation should correspond to low value AREL Analysis Causality Char * Perm Perm Apply imputation rules for missing causality of study drug as sp...",
      "normative_strength": "REQUIRED",
      "official_url": "https://www.cdisc.org/system/files/members/standard/foundational/ADaM_OCCDS_Implementation_Guide%20v1.1.pdf",
      "permitted_variations": [
        "All rights reserved Page 23 2021-11-29 Variable Name Variable Label Type Codelista Controlled Termsb Core SubClass ADVERSE EVENT Core CDISC Notes --RELN Causality (N) Num * Perm Perm Code XX.--REL to numeric Low relation should correspond to low value AREL Analysis Causality Char * Perm Perm Apply imputation rules for missing causality of study drug as specified in the SAP or metadata.",
        "May change case of text, such as from all uppercase in --REL to mixed case in AREL.",
        "related, not related) RELGRyN Pooled Causality Group y (N) Num * Perm Perm Code of RELGRy to numeric Low relation should correspond to low value --TOXGR Standard Toxicity Grade Char * Perm Cond XX.--TOXGR For SubClass ADVERSE EVENT, conditional on whether the --TOXGR variable is in the SDTM AE dataset.",
        "Note that either --SEV or --TOXGR should be included in SDTM.",
        "--TOXGRN Standard Toxicity Grade (N) Num * Perm Perm Code --TOXGR to numeric Low toxicity should correspond to low value ATOXGR Analysis Toxicity Grade Char * Perm Perm Toxicity grade for analysis.",
        "May be based on --TOXGR or an imputed or assigned value.",
        "May change case of text, such as from all uppercase in --TOXGR to mixed case in ATOXGR.",
        "ATOXGRN Analysis Toxicity Grade (N) Num * Perm Perm Code ATOXGR to numeric Low toxicity should correspond to low value TOXGGRy Pooled Toxicity Grade Group y Char * Perm Perm Pooled grouping of toxicity grade for analysis TOXGGRyN Pooled Toxicity Grade Group y (N) Num * Perm Perm Code of TOXGGRy to numeric Low toxicity should correspond to low value --ACN Action Taken with Study Treatment Char (ACN) Perm Cond XX.--...",
        "bAsterisk indicates variable may be subject to producer-defined controlled terminology.",
        "Any other SDTM variables should be included as appropriate."
      ],
      "prohibited_behavior": [],
      "required_behavior": "All rights reserved Page 23 2021-11-29 Variable Name Variable Label Type Codelista Controlled Termsb Core SubClass ADVERSE EVENT Core CDISC Notes --RELN Causality (N) Num * Perm Perm Code XX.--REL to numeric Low relation should correspond to low value AREL Analysis Causality Char * Perm Perm Apply imputation rules for missing causality of study drug as sp...",
      "required_inputs": [],
      "review_status": "CANDIDATE",
      "rule_id": "adam-occds:dede44fdb7d5724a",
      "rule_type": "CONTROLLED_TERMINOLOGY",
      "scope": {
        "candidate_kind": "controlled_terminology",
        "dataset_scope": [],
        "datasets": [],
        "structure_scope": [
          "OCCURRENCE_DATA_STRUCTURE"
        ],
        "variable_scope": [
          "ACN",
          "ADCM",
          "ADVERSE",
          "AREL",
          "ARELN",
          "ATOXGR",
          "ATOXGRN",
          "DOSE",
          "DOSFRM",
          "DOSRGM",
          "EVENT",
          "INDC",
          "REL",
          "RELN",
          "ROUTE",
          "SAP",
          "SEV",
          "STAT",
          "TOXGR",
          "TOXGRN"
        ],
        "variables": [
          "ACN",
          "ADCM",
          "ADVERSE",
          "AREL",
          "ARELN",
          "ATOXGR",
          "ATOXGRN",
          "DOSE",
          "DOSFRM",
          "DOSRGM",
          "EVENT",
          "INDC",
          "REL",
          "RELN",
          "ROUTE",
          "SAP",
          "SEV",
          "STAT",
          "TOXGR",
          "TOXGRN"
        ]
      },
      "semantic_reconstruction_status": "CANDIDATE_RECONSTRUCTED",
      "source_hash": "e5e510c491cad804236f89cc1bada6cca0f4b2f31c7dc84022d4197886fa8a1c",
      "source_section_classification": "CONTROLLED_TERMINOLOGY",
      "standard_id": "adam-occds",
      "standard_name": "ADaM OCCDS Implementation Guide",
      "standard_version": "1.1",
      "structure_scope": [
        "OCCURRENCE_DATA_STRUCTURE"
      ],
      "validation_requirement": null,
      "validation_requirements": [],
      "variable_scope": [
        "ACN",
        "ADCM",
        "ADVERSE",
        "AREL",
        "ARELN",
        "ATOXGR",
        "ATOXGRN",
        "DOSE",
        "DOSFRM",
        "DOSRGM",
        "EVENT",
        "INDC",
        "REL",
        "RELN",
        "ROUTE",
        "SAP",
        "SEV",
        "STAT",
        "TOXGR",
        "TOXGRN"
      ]
    },
    {
      "applicability_conditions": [],
      "classification": "STANDARD_REQUIRED",
      "classification_status": "RESOLVED",
      "conformance_metadata": null,
      "dataset_scope": [
        "ADAE"
      ],
      "evidence_locator": {
        "duplicate_locators": [],
        "extraction_timestamp": "2026-08-10T08:11:23+00:00",
        "page": 28,
        "parser_compiler_version": "m3r-1",
        "section": null,
        "source_binding_status": "SOURCE_BOUND",
        "source_excerpt": "CDISC ADaM Structure for Occurrence Data (OCCDS) Implementation Guide (1.1 Final) \u00a9 2021 Clinical Data Interchange Standards Consortium, Inc. All rights reserved Page 28 2021-11-29 4.2 Sample ADaM Variable Metadata - Example 1 This example describes an adverse events ADaM dataset named ADAE. ADAE is not a required dataset name. Table 4.2.1 Example of ADaM Variable Metadata Dataset Name Variable Name Variable Label..."
      },
      "exact_source_excerpt": "CDISC ADaM Structure for Occurrence Data (OCCDS) Implementation Guide (1.1 Final) \u00a9 2021 Clinical Data Interchange Standards Consortium, Inc. All rights reserved Page 28 2021-11-29 4.2 Sample ADaM Variable Metadata - Example 1 This example describes an adverse events ADaM dataset named ADAE. ADAE is not a required dataset name. Table 4.2.1 Example of ADaM Variable Metadata Dataset Name Variable Name Variable Label Variable Type Codelist Controlled Terms Source Derivation ADAE STUDYID Study Identifier text AE.STUDYID ADAE USUBJID Unique Subject Identifier text AE.USUBJID ADAE AESEQ Sequence Number integer AE.AESEQ ADAE AETERM Reported Term for the Adverse Event text AE.AETERM ADAE AEDECOD Dictionary-Derived Term text MedDRA AE.AEDECOD MedDRA Version XX.X",
      "excluded_reason": null,
      "expected_outputs": [
        "ADAE",
        "ADAE.AEDECOD",
        "ADAE.AESEQ",
        "ADAE.AETERM",
        "ADAE.STUDYID",
        "ADAE.USUBJID"
      ],
      "extraction_status": "CANDIDATE_RULE",
      "grain": null,
      "keys": [
        "AE"
      ],
      "local_relative_source_path": "ADaM_OCCDS_Implementation_Guide v1.1.pdf",
      "normalized_atomic_requirement": "ADAE is not a required dataset name.",
      "normative_strength": "REQUIRED",
      "official_url": "https://www.cdisc.org/system/files/members/standard/foundational/ADaM_OCCDS_Implementation_Guide%20v1.1.pdf",
      "permitted_variations": [],
      "prohibited_behavior": [],
      "required_behavior": "ADAE is not a required dataset name.",
      "required_inputs": [
        "AE.AEDECOD",
        "AE.AESEQ",
        "AE.AETERM",
        "AE.STUDYID",
        "AE.USUBJID"
      ],
      "review_status": "CANDIDATE",
      "rule_id": "adam-occds:df7ccc4fa04f728a",
      "rule_type": "CONTROLLED_TERMINOLOGY",
      "scope": {
        "candidate_kind": "controlled_terminology",
        "dataset_scope": [
          "ADAE"
        ],
        "datasets": [
          "ADAE"
        ],
        "structure_scope": [
          "OCCURRENCE_DATA_STRUCTURE"
        ],
        "variable_scope": [
          "AEDECOD",
          "AESEQ",
          "AETERM",
          "STUDYID",
          "USUBJID"
        ],
        "variables": [
          "AEDECOD",
          "AESEQ",
          "AETERM",
          "STUDYID",
          "USUBJID"
        ]
      },
      "semantic_reconstruction_status": "CANDIDATE_RECONSTRUCTED",
      "source_hash": "e5e510c491cad804236f89cc1bada6cca0f4b2f31c7dc84022d4197886fa8a1c",
      "source_section_classification": "CONTROLLED_TERMINOLOGY",
      "standard_id": "adam-occds",
      "standard_name": "ADaM OCCDS Implementation Guide",
      "standard_version": "1.1",
      "structure_scope": [
        "OCCURRENCE_DATA_STRUCTURE"
      ],
      "validation_requirement": null,
      "validation_requirements": [],
      "variable_scope": [
        "AEDECOD",
        "AESEQ",
        "AETERM",
        "STUDYID",
        "USUBJID"
      ]
    },
    {
      "applicability_conditions": [],
      "classification": "STANDARD_REQUIRED",
      "classification_status": "RESOLVED",
      "conformance_metadata": null,
      "dataset_scope": [],
      "evidence_locator": {
        "duplicate_locators": [],
        "extraction_timestamp": "2026-08-10T08:11:23+00:00",
        "page": 63,
        "parser_compiler_version": "m3r-1",
        "section": null,
        "source_binding_status": "SOURCE_BOUND",
        "source_excerpt": "13.2 Sample ADaM Variable Metadata - Example 10 This example describes a Medical History ADaM dataset named ADMH. ADMH is not a required dataset name. Table 13.2.1 Sample ADaM Variable Metadata Variable Name Variable Label Variable Type Codelist"
      },
      "exact_source_excerpt": "13.2 Sample ADaM Variable Metadata - Example 10 This example describes a Medical History ADaM dataset named ADMH. ADMH is not a required dataset name. Table 13.2.1 Sample ADaM Variable Metadata Variable Name Variable Label Variable Type Codelist",
      "excluded_reason": null,
      "expected_outputs": [],
      "extraction_status": "CANDIDATE_RULE",
      "grain": null,
      "keys": [],
      "local_relative_source_path": "ADaM_OCCDS_Implementation_Guide v1.1.pdf",
      "normalized_atomic_requirement": "ADMH is not a required dataset name.",
      "normative_strength": "REQUIRED",
      "official_url": "https://www.cdisc.org/system/files/members/standard/foundational/ADaM_OCCDS_Implementation_Guide%20v1.1.pdf",
      "permitted_variations": [],
      "prohibited_behavior": [],
      "required_behavior": "ADMH is not a required dataset name.",
      "required_inputs": [],
      "review_status": "CANDIDATE",
