{
  "rules": [
    {
      "applicability_conditions": [
        "It should be noted that when the CDISC Notes for a variable refer to another variable, it is understood that this means \"on the same record or row.\" For example, \"The numeric code for TRTP\" is understood to mean \"The numeric code for TRTP on the same record.\" Controlled Terminology has been developed for the values of certain ADaM variables.",
        "In the tables in this section, the parenthesized external codelist name appears in the Codelist/ Controlled Terms column, where relevant.",
        "However, unless specified in the definition for a specific variable, null is allowed.",
        "3.2 ADSL Variables As previously noted, an ADaM-compliant ADSL dataset and its related metadata are required in a CDISC-based submission of data from a clinical trial even if no other ADaM datasets are submitted.",
        "There may be situations where highly derived variables are to be included in the ADSL yet the derivation of these variables may better be performed in another ADaM dataset."
      ],
      "classification": "STANDARD_REQUIRED",
      "classification_status": "RESOLVED",
      "conformance_metadata": null,
      "dataset_scope": [
        "ADSL"
      ],
      "evidence_locator": {
        "duplicate_locators": [],
        "extraction_timestamp": "2026-08-10T08:11:23+00:00",
        "page": 21,
        "parser_compiler_version": "m3r-1",
        "section": null,
        "source_binding_status": "SOURCE_BOUND",
        "source_excerpt": "CDISC Analysis Data Model Implementation Guide (1.3 Final) \u00a9 2021 Clinical Data Interchange Standards Consortium, Inc. All rights reserved Page 21 2021-11-29 \u2022 SBP01BL, SBP02BL \u2013 Period-level baseline variables for systolic blood pressure. Other abbreviations for systolic blood pressure are also acceptable. \u2022 WEIGHTSC or WTSC \u2013 Screening weight. Other abbreviations of weight are also acceptable. \u2022 RUSDT \u2013 Run-in s..."
      },
      "exact_source_excerpt": "CDISC Analysis Data Model Implementation Guide (1.3 Final) \u00a9 2021 Clinical Data Interchange Standards Consortium, Inc. All rights reserved Page 21 2021-11-29 \u2022 SBP01BL, SBP02BL \u2013 Period-level baseline variables for systolic blood pressure. Other abbreviations for systolic blood pressure are also acceptable. \u2022 WEIGHTSC or WTSC \u2013 Screening weight. Other abbreviations of weight are also acceptable. \u2022 RUSDT \u2013 Run-in start date, using the timing fragment as the prefix in a timing variable as defined in Table 3.3.3.3. \u2022 WA01SDT, WA01EDT, WA02SDT, and WA02EDT \u2013 Washout start and end dates for two periods, using the timing fragment as the prefix in a timing variable as defined in Table 3.3.3.3. 3.1.6 Additional Information about Section 3 In general, the variable labels specified in Section 3, Standard ADaM Variables, are required. There are only 2 exceptions to this rule: 1. Descriptive text is allowed at the end of the labels of variables whose names contain indexes \"y\" or \"zz\"; and 2. Variable labels containing a word or phrase in curly brackets, e.g., {Time} (the label for *TM variables), should be replaced by the producer with appropriate text. The label must contain the bracketed word or phrase somewhere in the text. For example, *STM must use the phrase \"Start Time\" in the label, so labels such as \"Start Time of Rescue Med\" or \"Rescue Med Start Time\" are both valid. It is important to note that the standard variable labels by no means imply the use of standard derivation algorithms across studies and/or producers. It should be noted that when the CDISC Notes for a variable refer to another variable, it is understood that this means \"on the same record or row.\" For example, \"The numeric code for TRTP\" is understood to mean \"The numeric code for TRTP on the same record.\" Controlled Terminology has been developed for the values of certain ADaM variables. The most current CDISC terminology sets can be accessed via the CDISC website (http://www.cdisc.org/terminology ). In the tables in this section, the parenthesized external codelist name appears in the Codelist/ Controlled Terms column, where relevant. Examples of controlled terms in this document should be considered examples only; the official source is the most current CDISC set available through the website. Note that CDISC Controlled Terminology sets cannot represent null (absence of a value) in the list of valid terms because \"null\" is not a term. However, unless specified in the definition for a specific variable, null is allowed. Additional variables not defined in this section, may be necessary (e.g., to enable analysis, to support traceability, to facilitate presentation of the data), and may therefore be added to ADaM datasets, providing that they adhere to the ADaM naming conventions and rules as defined in this document. 3.2 ADSL Variables As previously noted, an ADaM-compliant ADSL dataset and its related metadata are required in a CDISC-based submission of data from a clinical trial even if no other ADaM datasets are submitted. The structure of the ADSL is 1 record per subject, regardless of the type of clinical trial design. This section lists standard ADSL variables. Section 2.3.1, The ADaM Subject-Level Analysis Dataset (ADSL) , describes the content of the ADSL and addresses the kinds of variables that are and are not appropriate for inclusion in the ADSL. Within a given study, USUBJID is the key variable that links the ADSL to other datasets (both SDTM and ADaM). For ADSL variables, the scope is \"within the study.\" For example, the definition of SITEGR1 is consistent for all datasets within a study. It is acknowledged that the scope of USUBJID extends beyond the study, as defined in the SDTM. There may be situations where highly derived variables are to be included in the ADSL yet the derivation of these variables may better be performed in another ADaM dataset. For example, consider the analysis need to include the baseline value of a derived parameter that is a composite score based on up to seven other parameters. These",
      "excluded_reason": null,
      "expected_outputs": [
        "ADSL",
        "ADSL.RUSDT",
        "ADSL.SBP01BL",
        "ADSL.SBP02BL",
        "ADSL.SITEGR1",
        "ADSL.STM",
        "ADSL.TRTP",
        "ADSL.USUBJID",
        "ADSL.WA01EDT",
        "ADSL.WA01SDT",
        "ADSL.WA02EDT",
        "ADSL.WA02SDT",
        "ADSL.WEIGHTSC",
        "ADSL.WTSC"
      ],
      "extraction_status": "CANDIDATE_RULE",
      "grain": null,
      "keys": [
        "ADSL",
        "SDTM"
      ],
      "local_relative_source_path": "ADaMIG_v1.3.pdf",
      "normalized_atomic_requirement": "3.1.6 Additional Information about Section 3 In general, the variable labels specified in Section 3, Standard ADaM Variables, are required.",
      "normative_strength": "REQUIRED",
      "official_url": "https://www.cdisc.org/system/files/members/standard/foundational/ADaMIG_v1.3.pdf",
      "permitted_variations": [
        "Variable labels containing a word or phrase in curly brackets, e.g., {Time} (the label for *TM variables), should be replaced by the producer with appropriate text.",
        "It should be noted that when the CDISC Notes for a variable refer to another variable, it is understood that this means \"on the same record or row.\" For example, \"The numeric code for TRTP\" is understood to mean \"The numeric code for TRTP on the same record.\" Controlled Terminology has been developed for the values of certain ADaM variables.",
        "The most current CDISC terminology sets can be accessed via the CDISC website (http://www.cdisc.org/terminology ).",
        "Examples of controlled terms in this document should be considered examples only; the official source is the most current CDISC set available through the website.",
        "Note that CDISC Controlled Terminology sets cannot represent null (absence of a value) in the list of valid terms because \"null\" is not a term.",
        "Additional variables not defined in this section, may be necessary (e.g., to enable analysis, to support traceability, to facilitate presentation of the data), and may therefore be added to ADaM datasets, providing that they adhere to the ADaM naming conventions and rules as defined in this document.",
        "There may be situations where highly derived variables are to be included in the ADSL yet the derivation of these variables may better be performed in another ADaM dataset."
      ],
      "prohibited_behavior": [],
      "required_behavior": "3.1.6 Additional Information about Section 3 In general, the variable labels specified in Section 3, Standard ADaM Variables, are required.",
      "required_inputs": [],
      "review_status": "CANDIDATE",
      "rule_id": "adamig:065ef7a727546c1a",
      "rule_type": "CONTROLLED_TERMINOLOGY",
      "scope": {
        "candidate_kind": "controlled_terminology",
        "dataset_scope": [
          "ADSL"
        ],
        "datasets": [
          "ADSL"
        ],
        "structure_scope": [
          "SUBJECT_LEVEL_ANALYSIS_DATASET"
        ],
        "variable_scope": [
          "RUSDT",
          "SBP01BL",
          "SBP02BL",
          "SITEGR1",
          "STM",
          "TRTP",
          "USUBJID",
          "WA01EDT",
          "WA01SDT",
          "WA02EDT",
          "WA02SDT",
          "WEIGHTSC",
          "WTSC"
        ],
        "variables": [
          "RUSDT",
          "SBP01BL",
          "SBP02BL",
          "SITEGR1",
          "STM",
          "TRTP",
          "USUBJID",
          "WA01EDT",
          "WA01SDT",
          "WA02EDT",
          "WA02SDT",
          "WEIGHTSC",
          "WTSC"
        ]
      },
      "semantic_reconstruction_status": "CANDIDATE_RECONSTRUCTED",
      "source_hash": "9b4e433592933ffb5310243cd7b38066eec02d5890507acc92e97b54e50a9b18",
      "source_section_classification": "CONTROLLED_TERMINOLOGY",
      "standard_id": "adamig",
      "standard_name": "ADaM Implementation Guide",
      "standard_version": "1.3",
      "structure_scope": [
        "SUBJECT_LEVEL_ANALYSIS_DATASET"
      ],
      "validation_requirement": "The label must contain the bracketed word or phrase somewhere in the text.",
      "validation_requirements": [
        "The label must contain the bracketed word or phrase somewhere in the text.",
        "For example, *STM must use the phrase \"Start Time\" in the label, so labels such as \"Start Time of Rescue Med\" or \"Rescue Med Start Time\" are both valid."
      ],
      "variable_scope": [
        "RUSDT",
        "SBP01BL",
        "SBP02BL",
        "SITEGR1",
        "STM",
        "TRTP",
        "USUBJID",
        "WA01EDT",
        "WA01SDT",
        "WA02EDT",
        "WA02SDT",
        "WEIGHTSC",
        "WTSC"
      ]
    },
    {
      "applicability_conditions": [
        "When analyzing based on the sequence of treatments, TRTSEQP is required even if identical to ARM.",
        "TRTSEQPN cannot be present unless TRTSEQP is also present.",
        "TRTSEQA Actual Sequence of Treatments Char Cond TRTSEQA is required if a situation occurred in the conduct of the trial where a subject received a sequence of treatments other than what was planned and there is an analysis based on the sequence of treatments.",
        "TRTSEQAN cannot be present unless TRTSEQA is also present.",
        "Useful when planned treatments (TRTxxP) in the specified period xx are pooled together for analysis according to pooling algorithm y.",
        "For example when in period 2 the first pooling algorithm dictates that all doses of Drug A (TR02PG1=\"All doses of Drug A\") are pooled together for comparison to all doses of Drug B (TR02PG1=\"All doses of Drug B\").",
        "TRxxPGyN cannot be present unless TRxxPGy is also present.",
        "Required when TRxxPGy is present and TRTxxA is present.",
        "TRxxAGyN cannot be present unless TRxxAGy is also present.",
        "Useful when planned treatment sequences (TRTSEQP) are pooled together for analysis according to pooling algorithm y.",
        "For example, this might be used in an analysis of an extension study when the analysis is based on what the subject received in the parent study as well as in the extension study.",
        "TSEQPGyN cannot be present unless TSEQPGy is also present.",
        "Required when TSEQPGy is present and TRTSEQA is present.",
        "TSEQAGyN cannot be present unless TSEQAGy is also present."
      ],
      "classification": "STANDARD_REQUIRED",
      "classification_status": "RESOLVED",
      "conformance_metadata": null,
      "dataset_scope": [
        "ADSL"
      ],
      "evidence_locator": {
        "duplicate_locators": [],
        "extraction_timestamp": "2026-08-10T08:11:23+00:00",
        "page": 24,
        "parser_compiler_version": "m3r-1",
        "section": null,
        "source_binding_status": "SOURCE_BOUND",
        "source_excerpt": "CDISC Analysis Data Model Implementation Guide (1.3 Final) \u00a9 2021 Clinical Data Interchange Standards Consortium, Inc. All rights reserved Page 24 2021-11-29 Variable Name Variable Label Type Codelist/ Controlled Terms Core CDISC Notes relevant to analysis of treatments or ARM is not fully descriptive (e.g., \"GROUP 1,\" \"GROUP 2\"). When analyzing based on the sequence of treatments, TRTSEQP is required even if iden..."
      },
      "exact_source_excerpt": "CDISC Analysis Data Model Implementation Guide (1.3 Final) \u00a9 2021 Clinical Data Interchange Standards Consortium, Inc. All rights reserved Page 24 2021-11-29 Variable Name Variable Label Type Codelist/ Controlled Terms Core CDISC Notes relevant to analysis of treatments or ARM is not fully descriptive (e.g., \"GROUP 1,\" \"GROUP 2\"). When analyzing based on the sequence of treatments, TRTSEQP is required even if identical to ARM. TRTSEQPN Planned Sequence of Treatments (N) Num Perm Numeric representation of TRTSEQP. There must be a one-to-one relationship between TRTSEQPN and TRTSEQP within a study. TRTSEQPN cannot be present unless TRTSEQP is also present. When TRTSEQP and TRTSEQPN are present, then on a given record, either both must be populated or both must be null. TRTSEQA Actual Sequence of Treatments Char Cond TRTSEQA is required if a situation occurred in the conduct of the trial where a subject received a sequence of treatments other than what was planned and there is an analysis based on the sequence of treatments. TRTSEQAN Actual Sequence of Treatments (N) Num Perm Numeric representation of TRTSEQA. There must be a one-to-one relationship between TRTSEQAN and TRTSEQA within a study. TRTSEQAN cannot be present unless TRTSEQA is also present. When TRTSEQA and TRTSEQAN are present, then on a given record, either both must be populated or both must be null. TRxxPGy Planned Pooled Treatment y for Period xx Char Perm Planned pooled treatment y for period xx. Useful when planned treatments (TRTxxP) in the specified period xx are pooled together for analysis according to pooling algorithm y. For example when in period 2 the first pooling algorithm dictates that all doses of Drug A (TR02PG1=\"All doses of Drug A\") are pooled together for comparison to all doses of Drug B (TR02PG1=\"All doses of Drug B\"). Each value of TRTxxP is pooled within at most one value of TRxxPGy. TRxxPGyN Planned Pooled Trt y for Period xx (N) Num Perm Numeric representation of TRxxPGy. There must be a one-to-one relationship between TRxxPGyN and TRxxPGy within a study. TRxxPGyN cannot be present unless TRxxPGy is also present. When TRxxPGy and TRxxPGyN are present, then on a given record, either both must be populated or both must be null. TRxxAGy Actual Pooled Treatment y for Period xx Char Cond Actual pooled treatment y for period xx. Required when TRxxPGy is present and TRTxxA is present. TRxxAGyN Actual Pooled Trt y for Period xx (N) Num Perm Numeric representation of TRxxAGy. There must be a one-to-one relationship between TRxxAGyN and TRxxAGy within a study. TRxxAGyN cannot be present unless TRxxAGy is also present. When TRxxAGy and TRxxAGyN are present, then on a given record, either both must be populated or both must be null. TSEQPGy Planned Pooled Treatment Sequence y Char Perm Planned pooled treatment sequence y. Useful when planned treatment sequences (TRTSEQP) are pooled together for analysis according to pooling algorithm y. For example, this might be used in an analysis of an extension study when the analysis is based on what the subject received in the parent study as well as in the extension study. TSEQPGyN Planned Pooled Treatment Sequence y (N) Num Perm Numeric representation of TSEQPGy. There must be a one-to-one relationship between TSEQPGyN and TSEQPGy within a study. TSEQPGyN cannot be present unless TSEQPGy is also present. When TSEQPGy and TSEQPGyN are present, then on a given record, either both must be populated or both must be null. TSEQAGy Actual Pooled Treatment Sequence y Char Cond Actual pooled treatment sequence y. Required when TSEQPGy is present and TRTSEQA is present. TSEQAGyN Actual Pooled Treatment Sequence y (N) Num Perm Numeric representation of TSEQAGy. There must be a one-to-one relationship between TSEQAGyN and TSEQAGy within a study. TSEQAGyN cannot be present unless TSEQAGy is also present. When TSEQAGy and TSEQAGyN are present, then on a given record, either both must be populated or both must be null. Table 3.2.5 describes ADSL dose variables, which are used to describe dosage amount. These variables can only be used in addition to, not instead of, the ADSL treatment variables in Table 3.2.4. It is permitted to include dosing information in both the treatment variables and in the dosing variables.",
      "excluded_reason": null,
      "expected_outputs": [
        "ADSL",
        "ADSL.ARM",
        "ADSL.GROUP",
        "ADSL.TR02PG1",
        "ADSL.TRTSEQA",
        "ADSL.TRTSEQAN",
        "ADSL.TRTSEQP",
        "ADSL.TRTSEQPN"
      ],
      "extraction_status": "CANDIDATE_RULE",
      "grain": null,
      "keys": [],
      "local_relative_source_path": "ADaMIG_v1.3.pdf",
      "normalized_atomic_requirement": "When analyzing based on the sequence of treatments, TRTSEQP is required even if identical to ARM.",
      "normative_strength": "REQUIRED",
      "official_url": "https://www.cdisc.org/system/files/members/standard/foundational/ADaMIG_v1.3.pdf",
      "permitted_variations": [
        "TRTSEQPN cannot be present unless TRTSEQP is also present.",
        "TRTSEQAN cannot be present unless TRTSEQA is also present.",
        "TRxxPGyN cannot be present unless TRxxPGy is also present.",
        "TRxxAGyN cannot be present unless TRxxAGy is also present.",
        "TSEQPGyN cannot be present unless TSEQPGy is also present.",
        "TSEQAGyN cannot be present unless TSEQAGy is also present.",
        "These variables can only be used in addition to, not instead of, the ADSL treatment variables in Table 3.2.4."
      ],
      "prohibited_behavior": [],
      "required_behavior": "When analyzing based on the sequence of treatments, TRTSEQP is required even if identical to ARM.",
      "required_inputs": [],
      "review_status": "CANDIDATE",
      "rule_id": "adamig:0a9f9d898ec13d0c",
      "rule_type": "CONTROLLED_TERMINOLOGY",
      "scope": {
        "candidate_kind": "controlled_terminology",
        "dataset_scope": [
          "ADSL"
        ],
        "datasets": [
          "ADSL"
        ],
        "structure_scope": [],
        "variable_scope": [
          "ARM",
          "GROUP",
          "TR02PG1",
          "TRTSEQA",
          "TRTSEQAN",
          "TRTSEQP",
          "TRTSEQPN"
        ],
        "variables": [
          "ARM",
          "GROUP",
          "TR02PG1",
          "TRTSEQA",
          "TRTSEQAN",
          "TRTSEQP",
          "TRTSEQPN"
        ]
      },
      "semantic_reconstruction_status": "CANDIDATE_RECONSTRUCTED",
      "source_hash": "9b4e433592933ffb5310243cd7b38066eec02d5890507acc92e97b54e50a9b18",
      "source_section_classification": "CONTROLLED_TERMINOLOGY",
      "standard_id": "adamig",
      "standard_name": "ADaM Implementation Guide",
      "standard_version": "1.3",
      "structure_scope": [],
      "validation_requirement": "There must be a one-to-one relationship between TRTSEQPN and TRTSEQP within a study.",
      "validation_requirements": [
        "There must be a one-to-one relationship between TRTSEQPN and TRTSEQP within a study.",
        "When TRTSEQP and TRTSEQPN are present, then on a given record, either both must be populated or both must be null.",
        "There must be a one-to-one relationship between TRTSEQAN and TRTSEQA within a study.",
        "When TRTSEQA and TRTSEQAN are present, then on a given record, either both must be populated or both must be null.",
        "There must be a one-to-one relationship between TRxxPGyN and TRxxPGy within a study.",
        "When TRxxPGy and TRxxPGyN are present, then on a given record, either both must be populated or both must be null.",
        "There must be a one-to-one relationship between TRxxAGyN and TRxxAGy within a study.",
        "When TRxxAGy and TRxxAGyN are present, then on a given record, either both must be populated or both must be null.",
        "There must be a one-to-one relationship between TSEQPGyN and TSEQPGy within a study.",
        "When TSEQPGy and TSEQPGyN are present, then on a given record, either both must be populated or both must be null.",
        "There must be a one-to-one relationship between TSEQAGyN and TSEQAGy within a study.",
        "When TSEQAGy and TSEQAGyN are present, then on a given record, either both must be populated or both must be null."
      ],
      "variable_scope": [
        "ARM",
        "GROUP",
        "TR02PG1",
        "TRTSEQA",
        "TRTSEQAN",
        "TRTSEQP",
        "TRTSEQPN"
      ]
    },
    {
      "applicability_conditions": [
        "All rights reserved Page 47 2021-11-29 Variable Name Variable Label Type Codelist/ Controlled Terms Core CDISC Notes BTOXGRLN cannot be present unless BTOXGRL is also present.",
        "BTOXGRHN cannot be present unless BTOXGRH is also present.",
        "ATOXDSCL is only populated if AVAL is populated and the PARAM is evaluated for toxicity in the low direction.",
        "ATOXDSCH is only populated if AVAL is populated and the PARAM is evaluated for toxicity in the high direction.",
        "For flag variables, values of only \"Y\" or null are used when a value of \"N\" is unimportant to the analysis (i.e., \"N\" and null are treated the same in the analysis).",
        "Flag values of \"Y\", \"N\", or null should be used when \"N\" and null are treated differently in the analysis.",
        "ABLFL is required if BASE is present in the dataset.",
        "ABLFN cannot be present unless ABLFL is also present.",
        "ANLzzFL Analysis Flag zz Char Y Cond ANLzzFL is a conditionally required flag to be used in addition to other selection variables when the other selection variables in combination are insufficient to identify the exact set of records used for one or more analyses."
      ],
      "classification": "STANDARD_REQUIRED",
      "classification_status": "RESOLVED",
      "conformance_metadata": null,
      "dataset_scope": [],
      "evidence_locator": {
        "duplicate_locators": [],
        "extraction_timestamp": "2026-08-10T08:11:23+00:00",
        "page": 47,
        "parser_compiler_version": "m3r-1",
        "section": null,
        "source_binding_status": "SOURCE_BOUND",
        "source_excerpt": "CDISC Analysis Data Model Implementation Guide (1.3 Final) \u00a9 2021 Clinical Data Interchange Standards Consortium, Inc. All rights reserved Page 47 2021-11-29 Variable Name Variable Label Type Codelist/ Controlled Terms Core CDISC Notes BTOXGRLN cannot be present unless BTOXGRL is also present. When BTOXGRL and BTOXGRLN are present, then on a given record, either both must be populated or both must be null. BTOXGRH..."
      },
      "exact_source_excerpt": "CDISC Analysis Data Model Implementation Guide (1.3 Final) \u00a9 2021 Clinical Data Interchange Standards Consortium, Inc. All rights reserved Page 47 2021-11-29 Variable Name Variable Label Type Codelist/ Controlled Terms Core CDISC Notes BTOXGRLN cannot be present unless BTOXGRL is also present. When BTOXGRL and BTOXGRLN are present, then on a given record, either both must be populated or both must be null. BTOXGRH Baseline Toxicity Grade High Char Perm ATOXGRH of the baseline record identified by ABLFL. BTOXGRHN Baseline Toxicity Grade High (N) Num Perm Numeric representation of BTOXGRH. There must be a one-to-one relationship between BTOXGRHN and BTOXGRH within a parameter. BTOXGRHN cannot be present unless BTOXGRH is also present. When BTOXGRH and BTOXGRHN are present, then on a given record, either both must be populated or both must be null. ATOXDSCL Analysis Toxicity Description Low Char Perm The analysis toxicity term used to describe toxicity in the low direction. ATOXDSCL is only populated if AVAL is populated and the PARAM is evaluated for toxicity in the low direction. There is a one-to-one relationship between ATOXDSCL and PARAM within a subject. The intent of this variable is to describe the type of toxicity being evaluated and not the level of toxicity on the specific record. ATOXDSCH Analysis Toxicity Description High Char Perm The analysis toxicity term used to describe toxicity in the high direction. ATOXDSCH is only populated if AVAL is populated and the PARAM is evaluated for toxicity in the high direction. There is a one-to-one relationship between ATOXDSCH and PARAM within a subject. The intent of this variable is to describe the type of toxicity being evaluated and not the level of toxicity on the specific record. See Section 4.9, Examples of Bi-directional Lab Toxicity Variables, for some examples of the use of these variables. 3.3.8 Indicator Variables for BDS Datasets Refer to Section 3.1.4, Flag Variable Conventions, for important points about the use of flag variables. See Section 3.5, Differences Between SDTM and ADaM Population and Baseline Flags, for a discussion of the differences between ADaM and SDTM population and baseline flags, and for a discussion of parameter- level and record-level population flags. For flag variables, values of only \"Y\" or null are used when a value of \"N\" is unimportant to the analysis (i.e., \"N\" and null are treated the same in the analysis). Flag values of \"Y\", \"N\", or null should be used when \"N\" and null are treated differently in the analysis. In Tables 3.3.8.1 and 3.3.8.2, the values shown in the Codelist/Controlled Terms column support common statistical needs. If required, the codelist/controlled terms values can be changed from \"Y\" to \"Y, N\". Table 3.3.8.1 Flag Variables for BDS Datasets Variable Name Variable Label Type Codelist/ Controlled Terms Core CDISC Notes ABLFL Baseline Record Flag Char Y Cond Character indicator to identify the baseline record for each subject, parameter, and baseline type (BASETYPE) combination. See BASETYPE in Table 3.3.4.1.1. ABLFL is required if BASE is present in the dataset. A baseline record may be derived (e.g., it may be an average), in which case DTYPE must also be populated. If BASE is populated for a parameter, and BASE is non-null for a subject for that parameter, then there must be a record flagged by ABLFL for that subject and parameter. ABLFN Baseline Record Flag (N) Num 1 Perm Numeric representation of ABLFL. There must be a one-to-one relationship between ABLFN and ABLFL. ABLFN cannot be present unless ABLFL is also present. When ABLFL and ABLFN are present, then on a given record, either both must be populated or both must be null. ANLzzFL Analysis Flag zz Char Y Cond ANLzzFL is a conditionally required flag to be used in addition to other selection variables when the other selection variables in combination are insufficient to identify the exact set of records used for one or more analyses. Often one ANLzzFL will serve to support the accurate selection of records for more than one analysis. Note that it is allowable to add additional descriptive text to the label (see Section 3.1.6, Additional Information about Section 3, Item 1). When defining the set of records used in a particular analysis or family of analyses, ANLzzFL is supplemental to, and is intended to be used in conjunction with, other selection variables, such as subject-level, parameter-level and record-level population flags, AVISIT, DTYPE, grouping variables such",
      "excluded_reason": null,
      "expected_outputs": [],
      "extraction_status": "CANDIDATE_RULE",
      "grain": null,
      "keys": [],
      "local_relative_source_path": "ADaMIG_v1.3.pdf",
      "normalized_atomic_requirement": "When BTOXGRL and BTOXGRLN are present, then on a given record, either both must be populated or both must be null.",
      "normative_strength": "REQUIRED",
      "official_url": "https://www.cdisc.org/system/files/members/standard/foundational/ADaMIG_v1.3.pdf",
      "permitted_variations": [
        "All rights reserved Page 47 2021-11-29 Variable Name Variable Label Type Codelist/ Controlled Terms Core CDISC Notes BTOXGRLN cannot be present unless BTOXGRL is also present.",
        "BTOXGRHN cannot be present unless BTOXGRH is also present.",
        "Flag values of \"Y\", \"N\", or null should be used when \"N\" and null are treated differently in the analysis.",
        "If required, the codelist/controlled terms values can be changed from \"Y\" to \"Y, N\".",
        "A baseline record may be derived (e.g., it may be an average), in which case DTYPE must also be populated.",
        "ABLFN cannot be present unless ABLFL is also present."
      ],
      "prohibited_behavior": [],
      "required_behavior": "When BTOXGRL and BTOXGRLN are present, then on a given record, either both must be populated or both must be null.",
      "required_inputs": [],
      "review_status": "CANDIDATE",
      "rule_id": "adamig:21df2621572ac61e",
      "rule_type": "CONTROLLED_TERMINOLOGY",
      "scope": {
        "candidate_kind": "controlled_terminology",
        "dataset_scope": [],
        "datasets": [],
        "structure_scope": [
          "BASIC_DATA_STRUCTURE"
        ],
        "variable_scope": [
          "ABLFL",
          "ABLFN",
          "ATOXDSCH",
          "ATOXDSCL",
          "ATOXGRH",
          "AVAL",
          "AVISIT",
          "BASE",
          "BASETYPE",
          "BTOXGRH",
          "BTOXGRHN",
          "BTOXGRL",
          "BTOXGRLN",
          "DTYPE",
          "PARAM"
        ],
        "variables": [
          "ABLFL",
          "ABLFN",
          "ATOXDSCH",
          "ATOXDSCL",
          "ATOXGRH",
          "AVAL",
          "AVISIT",
          "BASE",
          "BASETYPE",
          "BTOXGRH",
          "BTOXGRHN",
          "BTOXGRL",
          "BTOXGRLN",
          "DTYPE",
          "PARAM"
        ]
      },
      "semantic_reconstruction_status": "CANDIDATE_RECONSTRUCTED",
      "source_hash": "9b4e433592933ffb5310243cd7b38066eec02d5890507acc92e97b54e50a9b18",
      "source_section_classification": "CONTROLLED_TERMINOLOGY",
      "standard_id": "adamig",
      "standard_name": "ADaM Implementation Guide",
      "standard_version": "1.3",
      "structure_scope": [
        "BASIC_DATA_STRUCTURE"
      ],
      "validation_requirement": "When BTOXGRL and BTOXGRLN are present, then on a given record, either both must be populated or both must be null.",
      "validation_requirements": [
        "When BTOXGRL and BTOXGRLN are present, then on a given record, either both must be populated or both must be null.",
        "There must be a one-to-one relationship between BTOXGRHN and BTOXGRH within a parameter.",
        "When BTOXGRH and BTOXGRHN are present, then on a given record, either both must be populated or both must be null.",
        "A baseline record may be derived (e.g., it may be an average), in which case DTYPE must also be populated.",
        "If BASE is populated for a parameter, and BASE is non-null for a subject for that parameter, then there must be a record flagged by ABLFL for that subject and parameter.",
        "There must be a one-to-one relationship between ABLFN and ABLFL.",
        "When ABLFL and ABLFN are present, then on a given record, either both must be populated or both must be null."
      ],
      "variable_scope": [
        "ABLFL",
        "ABLFN",
        "ATOXDSCH",
        "ATOXDSCL",
        "ATOXGRH",
        "AVAL",
        "AVISIT",
        "BASE",
        "BASETYPE",
        "BTOXGRH",
        "BTOXGRHN",
        "BTOXGRL",
        "BTOXGRLN",
        "DTYPE",
        "PARAM"
      ]
    },
    {
      "applicability_conditions": [
        "(Best practice would dictate that the mapping would be one-to-one within a study, but that is not an ADaM requirement.) ATPTN cannot be present unless ATPT is also present.",
        "APHASE may be populated for spans of time where a subject is not on treatment.",
        "APHASEN cannot be present unless APHASE is also present.",
        "APERIOD is required if ASPER is present.",
        "APERIOD must be populated on all records where ASPER is populated."
      ],
      "classification": "STANDARD_REQUIRED",
      "classification_status": "RESOLVED",
      "conformance_metadata": null,
      "dataset_scope": [
        "ADSL"
      ],
      "evidence_locator": {
        "duplicate_locators": [],
        "extraction_timestamp": "2026-08-10T08:11:23+00:00",
        "page": 35,
        "parser_compiler_version": "m3r-1",
        "section": null,
        "source_binding_status": "SOURCE_BOUND",
        "source_excerpt": "CDISC Analysis Data Model Implementation Guide (1.3 Final) \u00a9 2021 Clinical Data Interchange Standards Consortium, Inc. All rights reserved Page 35 2021-11-29 Variable Name Variable Label Type Codelist/ Controlled Terms Core CDISC Notes ATPT can be within an analysis visit (e.g., blood pressure assessments at 10 min, 20 min, and 30 min post-dose at AVISIT=Week 1) or can be unrelated to AVISIT (e.g., migraine sympto..."
      },
      "exact_source_excerpt": "CDISC Analysis Data Model Implementation Guide (1.3 Final) \u00a9 2021 Clinical Data Interchange Standards Consortium, Inc. All rights reserved Page 35 2021-11-29 Variable Name Variable Label Type Codelist/ Controlled Terms Core CDISC Notes ATPT can be within an analysis visit (e.g., blood pressure assessments at 10 min, 20 min, and 30 min post-dose at AVISIT=Week 1) or can be unrelated to AVISIT (e.g., migraine symptoms 30 min, 60 min, and 120 min post-dose for attack 1). The way that ATPT is calculated, including the variables used in its derivation, should be indicated in the variable metadata for ATPT. The values and the rules for deriving ATPT may be different for different parameters within the same dataset. Values of ATPT are producer-defined, and are often directly usable in Clinical Study Report displays. If a dataset contains more than one record per parameter per subject, then an SDTM or ADaM relative timing variable must be present (ATPT could meet this requirement). ATPTN Analysis Timepoint (N) Num Perm Numeric representation of ATPT. Defining ATPTN so that its values represent the planned timepoints (e.g., minutes or hours after dosing) is not required but can facilitate plotting and interpretation of the values. There must be a one-to-one relationship between ATPTN and ATPT within a parameter. (Best practice would dictate that the mapping would be one-to-one within a study, but that is not an ADaM requirement.) ATPTN cannot be present unless ATPT is also present. When ATPT and ATPTN are present, then on a given record, either both must be populated or both must be null. ATPTREF Analysis Timepoint Reference Char Perm Description of the fixed reference point referred to by ATPT/ATPTN (e.g., time of dose). APHASE Phase Char Perm APHASE is a categorization of timing within a study, for example a higher-level categorization of APERIOD or an analysis epoch. For example, APHASE could describe spans of time for SCREENING, ON TREATMENT, and FOLLOW-UP. APHASE may be used alone or in addition to APERIOD. APHASE is independent of TRTxxP within ADSL. APHASE may be populated for spans of time where a subject is not on treatment. The value of APHASE (if populated) must be one of the values found in the ADSL APHASEw variables. APHASEN Phase (N) Num Perm Numeric representation of APHASE. The value of APHASEN (if populated) must be one of the w values found in the ADSL APHASEw variable names. There must be a one-to-one relationship between APHASEN and APHASE within a study, which must be the same as the one-to-one mapping between w and APHASEw in ADSL. APHASEN cannot be present unless APHASE is also present. When APHASE and APHASEN are present, then on a given record, either both must be populated or both must be null. APERIOD Period Num Cond APERIOD is a record-level timing variable that represents the analysis period within the study associated with the record for analysis purposes. The value of APERIOD (if populated) must be one of the xx values found in the ADSL TRTxxP variable names. APERIOD is required if ASPER is present. APERIOD must be populated on all records where ASPER is populated.",
      "excluded_reason": null,
      "expected_outputs": [
        "ADSL",
        "ADSL.APERIOD",
        "ADSL.APHASE",
        "ADSL.APHASEN",
        "ADSL.ASPER",
        "ADSL.ATPT",
        "ADSL.ATPTN",
        "ADSL.ATPTREF",
        "ADSL.AVISIT",
        "ADSL.FOLLOW",
        "ADSL.SCREENING",
        "ADSL.TREATMENT"
      ],
      "extraction_status": "CANDIDATE_RULE",
      "grain": "one record per parameter per subject, then an SDTM or ADaM relative timing variable must be present (ATPT could meet this requirement)",
      "keys": [],
      "local_relative_source_path": "ADaMIG_v1.3.pdf",
      "normalized_atomic_requirement": "The way that ATPT is calculated, including the variables used in its derivation, should be indicated in the variable metadata for ATPT.",
      "normative_strength": "REQUIRED",
      "official_url": "https://www.cdisc.org/system/files/members/standard/foundational/ADaMIG_v1.3.pdf",
      "permitted_variations": [
        "All rights reserved Page 35 2021-11-29 Variable Name Variable Label Type Codelist/ Controlled Terms Core CDISC Notes ATPT can be within an analysis visit (e.g., blood pressure assessments at 10 min, 20 min, and 30 min post-dose at AVISIT=Week 1) or can be unrelated to AVISIT (e.g., migraine symptoms 30 min, 60 min, and 120 min post-dose for attack 1).",
        "The way that ATPT is calculated, including the variables used in its derivation, should be indicated in the variable metadata for ATPT.",
        "The values and the rules for deriving ATPT may be different for different parameters within the same dataset.",
        "Defining ATPTN so that its values represent the planned timepoints (e.g., minutes or hours after dosing) is not required but can facilitate plotting and interpretation of the values.",
        "(Best practice would dictate that the mapping would be one-to-one within a study, but that is not an ADaM requirement.) ATPTN cannot be present unless ATPT is also present.",
        "APHASE may be used alone or in addition to APERIOD.",
        "APHASE may be populated for spans of time where a subject is not on treatment.",
        "APHASEN cannot be present unless APHASE is also present."
      ],
      "prohibited_behavior": [],
      "required_behavior": "The way that ATPT is calculated, including the variables used in its derivation, should be indicated in the variable metadata for ATPT.",
      "required_inputs": [],
      "review_status": "CANDIDATE",
      "rule_id": "adamig:2898fefacbe3aa69",
      "rule_type": "CONTROLLED_TERMINOLOGY",
      "scope": {
        "candidate_kind": "controlled_terminology",
        "dataset_scope": [
          "ADSL"
        ],
        "datasets": [
          "ADSL"
        ],
        "structure_scope": [],
        "variable_scope": [
          "APERIOD",
          "APHASE",
          "APHASEN",
          "ASPER",
          "ATPT",
          "ATPTN",
          "ATPTREF",
          "AVISIT",
          "FOLLOW",
          "SCREENING",
          "TREATMENT"
        ],
        "variables": [
          "APERIOD",
          "APHASE",
          "APHASEN",
          "ASPER",
          "ATPT",
          "ATPTN",
          "ATPTREF",
          "AVISIT",
          "FOLLOW",
          "SCREENING",
          "TREATMENT"
        ]
      },
      "semantic_reconstruction_status": "CANDIDATE_RECONSTRUCTED",
      "source_hash": "9b4e433592933ffb5310243cd7b38066eec02d5890507acc92e97b54e50a9b18",
      "source_section_classification": "CONTROLLED_TERMINOLOGY",
      "standard_id": "adamig",
      "standard_name": "ADaM Implementation Guide",
      "standard_version": "1.3",
      "structure_scope": [],
      "validation_requirement": "If a dataset contains more than one record per parameter per subject, then an SDTM or ADaM relative timing variable must be present (ATPT could meet this requirement).",
      "validation_requirements": [
        "If a dataset contains more than one record per parameter per subject, then an SDTM or ADaM relative timing variable must be present (ATPT could meet this requirement).",
        "There must be a one-to-one relationship between ATPTN and ATPT within a parameter.",
        "When ATPT and ATPTN are present, then on a given record, either both must be populated or both must be null.",
        "The value of APHASE (if populated) must be one of the values found in the ADSL APHASEw variables.",
        "The value of APHASEN (if populated) must be one of the w values found in the ADSL APHASEw variable names.",
        "There must be a one-to-one relationship between APHASEN and APHASE within a study, which must be the same as the one-to-one mapping between w and APHASEw in ADSL.",
        "When APHASE and APHASEN are present, then on a given record, either both must be populated or both must be null.",
        "The value of APERIOD (if populated) must be one of the xx values found in the ADSL TRTxxP variable names.",
        "APERIOD must be populated on all records where ASPER is populated."
      ],
      "variable_scope": [
        "APERIOD",
        "APHASE",
        "APHASEN",
        "ASPER",
        "ATPT",
        "ATPTN",
        "ATPTREF",
        "AVISIT",
        "FOLLOW",
        "SCREENING",
        "TREATMENT"
      ]
    },
    {
      "applicability_conditions": [
        "All rights reserved Page 44 2021-11-29 Variable Name Variable Label Type Codelist/ Controlled Terms Core CDISC Notes \u2022 LOCF = last observation carried forward \u2022 WOCF = worst observation carried forward \u2022 AVERAGE = average of values If analysis timepoints are defined by relative day or hour windows, then the variables in Table 3.3.5.2 may be used along with ADY or ARELTM to clarify how the record representing each analysis timepoint was chosen from among the possible candidates.",
        "If the sign of the difference is important, then AWTDIFF might have to be used in conjunction with ADY or ARELTM and possibly AWTARGET when choosing among records.",
        "For example, if AWRANGE is \"5-9 DAYS\", then AWLO is \"5\".",
        "For example, if AWRANGE is \"5-9 DAYS\", then AWHI is \"9\"."
      ],
      "classification": "STANDARD_GUIDED",
      "classification_status": "RESOLVED",
      "conformance_metadata": null,
      "dataset_scope": [],
      "evidence_locator": {
        "duplicate_locators": [],
        "extraction_timestamp": "2026-08-10T08:11:23+00:00",
        "page": 44,
        "parser_compiler_version": "m3r-1",
        "section": null,
        "source_binding_status": "SOURCE_BOUND",
        "source_excerpt": "CDISC Analysis Data Model Implementation Guide (1.3 Final) \u00a9 2021 Clinical Data Interchange Standards Consortium, Inc. All rights reserved Page 44 2021-11-29 Variable Name Variable Label Type Codelist/ Controlled Terms Core CDISC Notes \u2022 LOCF = last observation carried forward \u2022 WOCF = worst observation carried forward \u2022 AVERAGE = average of values If analysis timepoints are defined by relative day or hour windows..."
      },
      "exact_source_excerpt": "CDISC Analysis Data Model Implementation Guide (1.3 Final) \u00a9 2021 Clinical Data Interchange Standards Consortium, Inc. All rights reserved Page 44 2021-11-29 Variable Name Variable Label Type Codelist/ Controlled Terms Core CDISC Notes \u2022 LOCF = last observation carried forward \u2022 WOCF = worst observation carried forward \u2022 AVERAGE = average of values If analysis timepoints are defined by relative day or hour windows, then the variables in Table 3.3.5.2 may be used along with ADY or ARELTM to clarify how the record representing each analysis timepoint was chosen from among the possible candidates. The record chosen is indicated by the analyzed record flag ANLzzFL (see Table 3.3.8.1). Note that the variables in Table 3.3.5.2 may not be applicable in all situations and are presented as an option. Table 3.3.5.2 Analysis Visit Windowing Variables for BDS Datasets Variable Name Variable Label Type Codelist/ Controlled Terms Core CDISC Notes AWRANGE Analysis Window Valid Relative Range Char Perm The range of values that are valid for a given analysis timepoint (a given value of AVISIT). For example, \"5-9 DAYS\". AWTARGET Analysis Window Target Num Perm The target or most desired analysis relative day (ADY) value or analysis relative time (ARELTM) value for a given value of AVISIT. AWTDIFF Analysis Window Diff from Target Num Perm Absolute difference between ADY or ARELTM and AWTARGET. It will be necessary to adjust for the fact that there is no Day 0 in the event that ADY and AWTARGET are not of the same sign. If the sign of the difference is important, then AWTDIFF might have to be used in conjunction with ADY or ARELTM and possibly AWTARGET when choosing among records. AWLO Analysis Window Beginning Timepoint Num Perm The value of the beginning timepoint (inclusive) needs to be used in conjunction to AWRANGE. For example, if AWRANGE is \"5-9 DAYS\", then AWLO is \"5\". AWHI Analysis Window Ending Timepoint Num Perm The value of the ending timepoint (inclusive) needs to be used in conjunction to AWRANGE. For example, if AWRANGE is \"5-9 DAYS\", then AWHI is \"9\". AWU Analysis Window Unit Char Perm Unit used for AWTARGET, AWTDIFF, AWLO and AWHI. Examples: DAYS, HOURS.",
      "excluded_reason": null,
      "expected_outputs": [],
      "extraction_status": "CANDIDATE_RULE",
      "grain": null,
      "keys": [],
      "local_relative_source_path": "ADaMIG_v1.3.pdf",
      "normalized_atomic_requirement": "All rights reserved Page 44 2021-11-29 Variable Name Variable Label Type Codelist/ Controlled Terms Core CDISC Notes \u2022 LOCF = last observation carried forward \u2022 WOCF = worst observation carried forward \u2022 AVERAGE = average of values If analysis timepoints are defined by relative day or hour windows, then the variables in Table 3.3.5.2 may be used along wit...",
      "normative_strength": "GUIDED",
      "official_url": "https://www.cdisc.org/system/files/members/standard/foundational/ADaMIG_v1.3.pdf",
      "permitted_variations": [
        "All rights reserved Page 44 2021-11-29 Variable Name Variable Label Type Codelist/ Controlled Terms Core CDISC Notes \u2022 LOCF = last observation carried forward \u2022 WOCF = worst observation carried forward \u2022 AVERAGE = average of values If analysis timepoints are defined by relative day or hour windows, then the variables in Table 3.3.5.2 may be used along with ADY or ARELTM to clarify how the record representing each...",
        "Note that the variables in Table 3.3.5.2 may not be applicable in all situations and are presented as an option."
      ],
      "prohibited_behavior": [],
      "required_behavior": "All rights reserved Page 44 2021-11-29 Variable Name Variable Label Type Codelist/ Controlled Terms Core CDISC Notes \u2022 LOCF = last observation carried forward \u2022 WOCF = worst observation carried forward \u2022 AVERAGE = average of values If analysis timepoints are defined by relative day or hour windows, then the variables in Table 3.3.5.2 may be used along wit...",
      "required_inputs": [],
      "review_status": "CANDIDATE",
      "rule_id": "adamig:29906fee79bdbd17",
      "rule_type": "CONTROLLED_TERMINOLOGY",
      "scope": {
        "candidate_kind": "controlled_terminology",
        "dataset_scope": [],
        "datasets": [],
        "structure_scope": [
          "BASIC_DATA_STRUCTURE"
        ],
        "variable_scope": [
          "ADY",
          "ARELTM",
          "AVERAGE",
          "AVISIT",
          "AWHI",
          "AWLO",
          "AWRANGE",
          "AWTARGET",
          "AWTDIFF",
          "AWU",
          "DAYS",
          "HOURS",
          "LOCF",
          "WOCF"
        ],
        "variables": [
          "ADY",
          "ARELTM",
          "AVERAGE",
          "AVISIT",
          "AWHI",
          "AWLO",
          "AWRANGE",
          "AWTARGET",
          "AWTDIFF",
          "AWU",
          "DAYS",
          "HOURS",
          "LOCF",
          "WOCF"
        ]
      },
      "semantic_reconstruction_status": "CANDIDATE_RECONSTRUCTED",
      "source_hash": "9b4e433592933ffb5310243cd7b38066eec02d5890507acc92e97b54e50a9b18",
      "source_section_classification": "CONTROLLED_TERMINOLOGY",
      "standard_id": "adamig",
      "standard_name": "ADaM Implementation Guide",
      "standard_version": "1.3",
      "structure_scope": [
        "BASIC_DATA_STRUCTURE"
      ],
      "validation_requirement": null,
      "validation_requirements": [],
      "variable_scope": [
        "ADY",
        "ARELTM",
        "AVERAGE",
        "AVISIT",
        "AWHI",
        "AWLO",
        "AWRANGE",
        "AWTARGET",
        "AWTDIFF",
        "AWU",
        "DAYS",
        "HOURS",
        "LOCF",
        "WOCF"
      ]
    },
    {
      "applicability_conditions": [
        "It is permissible to use suffixes such as \"P\" and \"A\" if needed, with labels modified accordingly.",
        "3.3.3 Timing Variables for BDS Datasets Any SDTM timing variable (including, but not limited to EPOCH, --DTC, --DY, VISITNUM, VISIT, and VISITDY) may be copied into ADaM datasets when it supports data traceability and/or shows how ADaM timing variables contrast with SDTM timing data.",
        "For example, if a numeric date variable were created from --STDTC, then it would be named --SDT.",
        "However, if --DTC or --STDTC is the date that is associated with AVAL and AVALC, its numeric equivalent should be named ADT or ASTDT, as appropriate.",
        "ASTDT and AENDT may be useful for traceability when AVAL summarizes data collected over an interval of time, or when AVAL is a duration.",
        "ASTTM and AENTM may be useful for traceability when AVAL summarizes data collected over an interval of time, or when AVAL is a duration.",
        "ASTDTM and AENDTM may be useful for traceability when AVAL summarizes data collected over an interval of time, or when AVAL is a duration."
      ],
      "classification": "STANDARD_REQUIRED",
      "classification_status": "RESOLVED",
      "conformance_metadata": null,
      "dataset_scope": [],
      "evidence_locator": {
        "duplicate_locators": [],
        "extraction_timestamp": "2026-08-10T08:11:23+00:00",
        "page": 33,
        "parser_compiler_version": "m3r-1",
        "section": null,
        "source_binding_status": "SOURCE_BOUND",
        "source_excerpt": "CDISC Analysis Data Model Implementation Guide (1.3 Final) \u00a9 2021 Clinical Data Interchange Standards Consortium, Inc. All rights reserved Page 33 2021-11-29 Table 3.3.2.2 Record-Level Dose Variables for BDS Datasets Variable Name Variable Label Type Codelist/ Controlled Terms Core CDISC Notes DOSEP Planned Treatment Dose Num Perm DOSEP represents the planned treatment dosage associated with the record. DOSCUMP Cu..."
      },
      "exact_source_excerpt": "CDISC Analysis Data Model Implementation Guide (1.3 Final) \u00a9 2021 Clinical Data Interchange Standards Consortium, Inc. All rights reserved Page 33 2021-11-29 Table 3.3.2.2 Record-Level Dose Variables for BDS Datasets Variable Name Variable Label Type Codelist/ Controlled Terms Core CDISC Notes DOSEP Planned Treatment Dose Num Perm DOSEP represents the planned treatment dosage associated with the record. DOSCUMP Cumulative Planned Treatment Dose Num Perm Cumulative planned dosage of treatment for the subject at the point in time of the record (e.g., ADT). DOSEA Actual Treatment Dose Num Perm DOSEA represents the actual treatment dosage associated with the record. DOSCUMA Cumulative Actual Treatment Dose Num Perm Cumulative actual dosage of treatment for the subject at the point in time of the record (e.g., ADT). DOSEU Treatment Dose Units Char Perm The units for DOSEP, DOSCUMP, DOSEA, and DOSCUMA. It is permissible to use suffixes such as \"P\" and \"A\" if needed, with labels modified accordingly. 3.3.3 Timing Variables for BDS Datasets Any SDTM timing variable (including, but not limited to EPOCH, --DTC, --DY, VISITNUM, VISIT, and VISITDY) may be copied into ADaM datasets when it supports data traceability and/or shows how ADaM timing variables contrast with SDTM timing data. If a dataset contains more than 1 record within a parameter and within a subject, then an SDTM or ADaM relative timing variable must be present (eg, ADY, ASTDY, AENDY, AVISIT, ATPT). Table 3.3.3.1 defines analysis timing variables for BDS datasets. The timing variables whose names start with the letter A are the timing variables directly associated with the AVAL and AVALC variables in the ADaM dataset. Timing variables not directly characterizing AVAL (e.g., *DT) should be prefixed by a character string instead of the placeholder asterisk shown in Table 3.3.3.3, so that their actual names comply with the variable naming conventions described in Section 3.1, ADaM Variable Conventions. In many cases, the prefix for these date and time variables would match that of an SDTM --DTC, --STDTC or --ENDTC variable name. For example, if a numeric date variable were created from --STDTC, then it would be named --SDT. However, if --DTC or --STDTC is the date that is associated with AVAL and AVALC, its numeric equivalent should be named ADT or ASTDT, as appropriate. The timing variable conventions documented in Section 3.1.2, Timing Variable Conventions, apply here as well. Table 3.3.3.1 Timing Variables for BDS Datasets Variable Name Variable Label Type Codelist/ Controlled Terms Core CDISC Notes ADT Analysis Date Num Cond The date associated with AVAL and/or AVALC in numeric format. ATM Analysis Time Num Cond The time associated with AVAL and/or AVALC in numeric format. ADTM Analysis Datetime Num Cond The datetime associated with AVAL and/or AVALC in numeric format. ADY Analysis Relative Day Num Cond The relative day of AVAL and/or AVALC. The number of days from an anchor date (not necessarily DM.RFSTDTC) to ADT. See Section 3.1.2, Timing Variable Conventions. If a dataset contains more than one record per parameter per subject, then an SDTM or ADaM relative timing variable must be present (ADY would meet this requirement). ADTF Analysis Date Imputation Flag Char (DATEFL) Cond The level of imputation of analysis date. If ADT (or the date part of ADTM) was imputed, ADTF must be populated and is required. See Section 3.1.3, Date and Time Imputation Flag Variables. ATMF Analysis Time Imputation Flag Char (TIMEFL) Cond The level of imputation of analysis time. If ATM (or the time part of ADTM) was imputed, ATMF must be populated and is required. See Section 3.1.3, Date and Time Imputation Flag Variables. ASTDT Analysis Start Date Num Cond The start date associated with AVAL and/or AVALC. ASTDT and AENDT may be useful for traceability when AVAL summarizes data collected over an interval of time, or when AVAL is a duration. ASTTM Analysis Start Time Num Cond The start time associated with AVAL and/or AVALC. ASTTM and AENTM may be useful for traceability when AVAL summarizes data collected over an interval of time, or when AVAL is a duration. ASTDTM Analysis Start Datetime Num Cond The start datetime associated with AVAL and/or AVALC. ASTDTM and AENDTM may be useful for traceability when AVAL summarizes data collected over an interval of time, or when AVAL is a duration.",
      "excluded_reason": null,
      "expected_outputs": [],
      "extraction_status": "CANDIDATE_RULE",
      "grain": "one record per parameter per subject, then an SDTM or ADaM relative timing variable must be present (ADY would meet this requirement)",
      "keys": [],
      "local_relative_source_path": "ADaMIG_v1.3.pdf",
      "normalized_atomic_requirement": "3.3.3 Timing Variables for BDS Datasets Any SDTM timing variable (including, but not limited to EPOCH, --DTC, --DY, VISITNUM, VISIT, and VISITDY) may be copied into ADaM datasets when it supports data traceability and/or shows how ADaM timing variables contrast with SDTM timing data.",
      "normative_strength": "REQUIRED",
      "official_url": "https://www.cdisc.org/system/files/members/standard/foundational/ADaMIG_v1.3.pdf",
      "permitted_variations": [
        "3.3.3 Timing Variables for BDS Datasets Any SDTM timing variable (including, but not limited to EPOCH, --DTC, --DY, VISITNUM, VISIT, and VISITDY) may be copied into ADaM datasets when it supports data traceability and/or shows how ADaM timing variables contrast with SDTM timing data.",
        "Timing variables not directly characterizing AVAL (e.g., *DT) should be prefixed by a character string instead of the placeholder asterisk shown in Table 3.3.3.3, so that their actual names comply with the variable naming conventions described in Section 3.1, ADaM Variable Conventions.",
        "However, if --DTC or --STDTC is the date that is associated with AVAL and AVALC, its numeric equivalent should be named ADT or ASTDT, as appropriate.",
        "ASTDT and AENDT may be useful for traceability when AVAL summarizes data collected over an interval of time, or when AVAL is a duration.",
        "ASTTM and AENTM may be useful for traceability when AVAL summarizes data collected over an interval of time, or when AVAL is a duration.",
        "ASTDTM and AENDTM may be useful for traceability when AVAL summarizes data collected over an interval of time, or when AVAL is a duration."
      ],
      "prohibited_behavior": [],
      "required_behavior": "3.3.3 Timing Variables for BDS Datasets Any SDTM timing variable (including, but not limited to EPOCH, --DTC, --DY, VISITNUM, VISIT, and VISITDY) may be copied into ADaM datasets when it supports data traceability and/or shows how ADaM timing variables contrast with SDTM timing data.",
      "required_inputs": [
        "DM.RFSTDTC"
      ],
      "review_status": "CANDIDATE",
      "rule_id": "adamig:34c4737a287121bc",
      "rule_type": "CONTROLLED_TERMINOLOGY",
      "scope": {
        "candidate_kind": "controlled_terminology",
        "dataset_scope": [],
        "datasets": [],
        "structure_scope": [
          "BASIC_DATA_STRUCTURE"
        ],
        "variable_scope": [
          "ADT",
          "ADTF",
          "ADTM",
          "ADY",
          "AENDT",
          "AENDTM",
          "AENDY",
          "AENTM",
          "ASTDT",
          "ASTDTM",
          "ASTDY",
          "ASTTM",
          "ATM",
          "ATMF",
          "ATPT",
          "AVAL",
          "AVALC",
          "AVISIT",
          "DATEFL",
          "DOSCUMA",
          "DOSCUMP",
          "DOSEA",
          "DOSEP",
          "DOSEU",
          "DTC",
          "ENDTC",
          "EPOCH",
          "RFSTDTC",
          "SDT",
          "STDTC",
          "TIMEFL",
          "VISIT",
          "VISITDY",
          "VISITNUM"
        ],
        "variables": [
          "ADT",
          "ADTF",
          "ADTM",
          "ADY",
          "AENDT",
          "AENDTM",
          "AENDY",
          "AENTM",
          "ASTDT",
          "ASTDTM",
          "ASTDY",
          "ASTTM",
          "ATM",
          "ATMF",
          "ATPT",
          "AVAL",
          "AVALC",
          "AVISIT",
          "DATEFL",
          "DOSCUMA",
          "DOSCUMP",
          "DOSEA",
          "DOSEP",
          "DOSEU",
          "DTC",
          "ENDTC",
          "EPOCH",
          "RFSTDTC",
          "SDT",
          "STDTC",
          "TIMEFL",
          "VISIT",
          "VISITDY",
          "VISITNUM"
        ]
      },
      "semantic_reconstruction_status": "CANDIDATE_RECONSTRUCTED",
      "source_hash": "9b4e433592933ffb5310243cd7b38066eec02d5890507acc92e97b54e50a9b18",
      "source_section_classification": "CONTROLLED_TERMINOLOGY",
      "standard_id": "adamig",
      "standard_name": "ADaM Implementation Guide",
      "standard_version": "1.3",
      "structure_scope": [
        "BASIC_DATA_STRUCTURE"
      ],
      "validation_requirement": "If a dataset contains more than 1 record within a parameter and within a subject, then an SDTM or ADaM relative timing variable must be present (eg, ADY, ASTDY, AENDY, AVISIT, ATPT).",
      "validation_requirements": [
        "If a dataset contains more than 1 record within a parameter and within a subject, then an SDTM or ADaM relative timing variable must be present (eg, ADY, ASTDY, AENDY, AVISIT, ATPT).",
        "If a dataset contains more than one record per parameter per subject, then an SDTM or ADaM relative timing variable must be present (ADY would meet this requirement).",
        "If ADT (or the date part of ADTM) was imputed, ADTF must be populated and is required.",
        "If ATM (or the time part of ADTM) was imputed, ATMF must be populated and is required."
      ],
      "variable_scope": [
        "ADT",
        "ADTF",
        "ADTM",
        "ADY",
        "AENDT",
        "AENDTM",
        "AENDY",
        "AENTM",
        "ASTDT",
        "ASTDTM",
        "ASTDY",
        "ASTTM",
        "ATM",
        "ATMF",
        "ATPT",
        "AVAL",
        "AVALC",
        "AVISIT",
        "DATEFL",
        "DOSCUMA",
        "DOSCUMP",
        "DOSEA",
        "DOSEP",
        "DOSEU",
        "DTC",
        "ENDTC",
        "EPOCH",
        "RFSTDTC",
        "SDT",
        "STDTC",
        "TIMEFL",
        "VISIT",
        "VISITDY",
        "VISITNUM"
      ]
    },
    {
      "applicability_conditions": [
        "RACEGRyN cannot be present unless RACEGRy is also present.",
        "If a flag is used, the corresponding numeric version (*FN, where 0 = No and 1 = Yes) of the population flag can also be included."
      ],
      "classification": "STANDARD_REQUIRED",
      "classification_status": "RESOLVED",
      "conformance_metadata": null,
      "dataset_scope": [
        "ADSL"
      ],
      "evidence_locator": {
        "duplicate_locators": [],
        "extraction_timestamp": "2026-08-10T08:11:23+00:00",
        "page": 23,
        "parser_compiler_version": "m3r-1",
        "section": null,
        "source_binding_status": "SOURCE_BOUND",
        "source_excerpt": "CDISC Analysis Data Model Implementation Guide (1.3 Final) \u00a9 2021 Clinical Data Interchange Standards Consortium, Inc. All rights reserved Page 23 2021-11-29 Variable Name Variable Label Type Codelist/ Controlled Terms Core CDISC Notes RACEGRyN Pooled Race Group y (N) Num Perm Numeric representation of RACEGRy. Orders the grouping or pooling of subject race for analysis and reporting. There must be a one-to-one re..."
      },
      "exact_source_excerpt": "CDISC Analysis Data Model Implementation Guide (1.3 Final) \u00a9 2021 Clinical Data Interchange Standards Consortium, Inc. All rights reserved Page 23 2021-11-29 Variable Name Variable Label Type Codelist/ Controlled Terms Core CDISC Notes RACEGRyN Pooled Race Group y (N) Num Perm Numeric representation of RACEGRy. Orders the grouping or pooling of subject race for analysis and reporting. There must be a one-to-one relationship between RACEGRyN and RACEGRy within a study. RACEGRyN cannot be present unless RACEGRy is also present. When RACEGRy and RACEGRyN are present, then on a given record, either both must be populated or both must be null. At least 1 population flag is required by ADaM. Table 3.2.3 describes ADaM population flags, although the list is not meant to be all-inclusive. See Section 3.5, Differences Between SDTM and ADaM Population and Baseline Flags, for details on the differences between SDTM- and ADaM-defined population flags. Table 3.2.3 ADSL Population Indicator Variables Variable Name Variable Label Type Codelist/ Controlled Terms Core CDISC Notes FASFL Full Analysis Set Population Flag Char Y, N Cond These flags identify whether or not the subject is included in the specified population. A minimum of one subject-level population flag variable is required in ADSL. Not all of the indicators listed here need to be included in ADSL. As stated in Section 3.1.4, Flag Variable Conventions, only those indicators corresponding to populations defined in the statistical analysis plan or populations used as a basis for analysis need be included in ADSL. This list of flags is not meant to be all-inclusive. Additional population flags may be added. The values of subject-level population flags cannot be blank. If a flag is used, the corresponding numeric version (*FN, where 0 = No and 1 = Yes) of the population flag can also be included. Please also refer to Section 3.1.4, Flag Variable Conventions.",
      "excluded_reason": null,
      "expected_outputs": [
        "ADSL",
        "ADSL.FASFL"
      ],
      "extraction_status": "CANDIDATE_RULE",
      "grain": null,
      "keys": [],
      "local_relative_source_path": "ADaMIG_v1.3.pdf",
      "normalized_atomic_requirement": "There must be a one-to-one relationship between RACEGRyN and RACEGRy within a study.",
      "normative_strength": "REQUIRED",
      "official_url": "https://www.cdisc.org/system/files/members/standard/foundational/ADaMIG_v1.3.pdf",
      "permitted_variations": [
        "RACEGRyN cannot be present unless RACEGRy is also present.",
        "Additional population flags may be added.",
        "The values of subject-level population flags cannot be blank.",
        "If a flag is used, the corresponding numeric version (*FN, where 0 = No and 1 = Yes) of the population flag can also be included."
      ],
      "prohibited_behavior": [],
      "required_behavior": "There must be a one-to-one relationship between RACEGRyN and RACEGRy within a study.",
      "required_inputs": [],
      "review_status": "CANDIDATE",
      "rule_id": "adamig:37acdce04e1e2ec6",
      "rule_type": "CONTROLLED_TERMINOLOGY",
      "scope": {
        "candidate_kind": "controlled_terminology",
        "dataset_scope": [
          "ADSL"
        ],
        "datasets": [
          "ADSL"
        ],
        "structure_scope": [],
        "variable_scope": [
          "FASFL"
        ],
        "variables": [
          "FASFL"
        ]
      },
      "semantic_reconstruction_status": "CANDIDATE_RECONSTRUCTED",
      "source_hash": "9b4e433592933ffb5310243cd7b38066eec02d5890507acc92e97b54e50a9b18",
      "source_section_classification": "CONTROLLED_TERMINOLOGY",
      "standard_id": "adamig",
      "standard_name": "ADaM Implementation Guide",
      "standard_version": "1.3",
      "structure_scope": [],
      "validation_requirement": "There must be a one-to-one relationship between RACEGRyN and RACEGRy within a study.",
      "validation_requirements": [
        "There must be a one-to-one relationship between RACEGRyN and RACEGRy within a study.",
        "When RACEGRy and RACEGRyN are present, then on a given record, either both must be populated or both must be null."
      ],
      "variable_scope": [
        "FASFL"
      ]
    },
    {
      "applicability_conditions": [
        "All rights reserved Page 50 2021-11-29 If all values of AVAL or AVALC in the ADaM dataset are taken from a single SDTM domain, all records in the ADaM dataset would have the same value for SRCDOM and SRCVAR.",
        "The ADaM Team agrees that it would be best if the SDTM subject-level population supplemental qualifiers are in harmony with the ADaM population indicator variables, but it is important to recognize that there may be situations where they differ."
      ],
      "classification": "STANDARD_REQUIRED",
      "classification_status": "RESOLVED",
      "conformance_metadata": null,
      "dataset_scope": [],
      "evidence_locator": {
        "duplicate_locators": [],
        "extraction_timestamp": "2026-08-10T08:11:23+00:00",
        "page": 50,
        "parser_compiler_version": "m3r-1",
        "section": null,
        "source_binding_status": "SOURCE_BOUND",
        "source_excerpt": "CDISC Analysis Data Model Implementation Guide (1.3 Final) \u00a9 2021 Clinical Data Interchange Standards Consortium, Inc. All rights reserved Page 50 2021-11-29 If all values of AVAL or AVALC in the ADaM dataset are taken from a single SDTM domain, all records in the ADaM dataset would have the same value for SRCDOM and SRCVAR. Instead of using SRCDOM, SRCVAR, and SRCSEQ in that case, the producer may elect to simply..."
      },
      "exact_source_excerpt": "CDISC Analysis Data Model Implementation Guide (1.3 Final) \u00a9 2021 Clinical Data Interchange Standards Consortium, Inc. All rights reserved Page 50 2021-11-29 If all values of AVAL or AVALC in the ADaM dataset are taken from a single SDTM domain, all records in the ADaM dataset would have the same value for SRCDOM and SRCVAR. Instead of using SRCDOM, SRCVAR, and SRCSEQ in that case, the producer may elect to simply include the --SEQ variable from the source SDTM domain, which is sufficient to provide the needed traceability within a subject. 3.4 Analysis-Enabling Variables There is a class of variables that enable 1 or more of the analyses that the dataset was designed to support (see the definition of analysis-enabling in Section 1.5.1, General ADaM Definitions ). Generally, these enabling variables would include the indicator variables and analysis descriptor variables previously described, which are often needed to make the ADaM dataset one statistical procedure away from analysis results. Enabling variables may also include stratification and subgrouping variables, model covariates, and any other variables required to be present in order to perform an analysis. 3.5 Differences Between SDTM and ADaM Population and Baseline Flags The SDTMIG includes Controlled Terminology for some Supplemental Qualifier values for subject-level population flags. The conceptual mapping from those terms to ADaM indicator variables is presented in Table 3.5.1. Whenever population or baseline flags are needed for analyses, the ADaM variables must be used. Table 3.5.1 ADaM Subject-Level Population Flags Corresponding to SDTM Supplemental Qualifiers SDTM QNAM SDTM QLABEL ADaM Subject-Level Population Flags COMPLT Completers Population Flag COMPLFL FULLSET Full Analysis Set Flag FASFL ITT Intent to Treat Population Flag ITTFL PPROT Per Protocol Set Flag PPROTFL SAFETY Safety Population Flag SAFFL It is possible that ADaM subject-level population flags might not match their conceptual counterparts in the SDTM. For example, the SDTM ITT Supplemental Qualifier may not match the ADaM ITTFL indicator variable for a given subject. These population indicators may not match because of operational issues. It is entirely possible that an organization could inherit an SDTM database that for various reasons cannot be changed. It is not incumbent on those creating ADaM datasets to go back and \"fix\" the SDTM population supplemental qualifiers and there may be good reason not to do so. The ADaM Team agrees that it would be best if the SDTM subject-level population supplemental qualifiers are in harmony with the ADaM population indicator variables, but it is important to recognize that there may be situations where they differ. There are additional ADaM subject-level population flags that do not have counterparts in SDTM. ADaM also supports parameter-level and record-level population flags, which do not exist in the SDTM. Similarly, a baseline record identified in the SDTM dataset may not be the record identified in an ADaM dataset, and there are many reasons why this may occur. There are ADaM parameters that are highly derived and do not have simple counterparts in a Findings domain. An ADaM parameter may be derived from SDTM data spanning multiple domains and classes. Such a parameter would not exist in the SDTM and so its baseline could only exist in the ADaM dataset. Also, it may be necessary to have separate baselines for different periods within a study, for example to support analyses of change from screening baseline, double-blind treatment baseline, and open-label extension baseline (see Section 4.2.1.6, Rule 6.). When there is record-level population flagging, it may be necessary to have different baselines for 2 different analysis populations. Finally, it may be desired to conduct analyses for different definitions of baseline. The ADaM baseline flag ABLFL, coupled with the BASE and BASETYPE columns, plus population flags, can handle all of these practical scenarios. For analysis purposes, the values of population and baseline flags used for analysis are found in the ADaM datasets. ADaM flags should be described in ADaM metadata.",
      "excluded_reason": null,
      "expected_outputs": [],
      "extraction_status": "CANDIDATE_RULE",
      "grain": null,
      "keys": [],
      "local_relative_source_path": "ADaMIG_v1.3.pdf",
      "normalized_atomic_requirement": "Instead of using SRCDOM, SRCVAR, and SRCSEQ in that case, the producer may elect to simply include the --SEQ variable from the source SDTM domain, which is sufficient to provide the needed traceability within a subject.",
      "normative_strength": "REQUIRED",
      "official_url": "https://www.cdisc.org/system/files/members/standard/foundational/ADaMIG_v1.3.pdf",
      "permitted_variations": [
        "Instead of using SRCDOM, SRCVAR, and SRCSEQ in that case, the producer may elect to simply include the --SEQ variable from the source SDTM domain, which is sufficient to provide the needed traceability within a subject.",
        "Enabling variables may also include stratification and subgrouping variables, model covariates, and any other variables required to be present in order to perform an analysis.",
        "For example, the SDTM ITT Supplemental Qualifier may not match the ADaM ITTFL indicator variable for a given subject.",
        "These population indicators may not match because of operational issues.",
        "It is entirely possible that an organization could inherit an SDTM database that for various reasons cannot be changed.",
        "It is not incumbent on those creating ADaM datasets to go back and \"fix\" the SDTM population supplemental qualifiers and there may be good reason not to do so.",
        "The ADaM Team agrees that it would be best if the SDTM subject-level population supplemental qualifiers are in harmony with the ADaM population indicator variables, but it is important to recognize that there may be situations where they differ.",
        "Similarly, a baseline record identified in the SDTM dataset may not be the record identified in an ADaM dataset, and there are many reasons why this may occur.",
        "An ADaM parameter may be derived from SDTM data spanning multiple domains and classes.",
        "Also, it may be necessary to have separate baselines for different periods within a study, for example to support analyses of change from screening baseline, double-blind treatment baseline, and open-label extension baseline (see Section 4.2.1.6, Rule 6.).",
        "When there is record-level population flagging, it may be necessary to have different baselines for 2 different analysis populations.",
        "Finally, it may be desired to conduct analyses for different definitions of baseline.",
        "The ADaM baseline flag ABLFL, coupled with the BASE and BASETYPE columns, plus population flags, can handle all of these practical scenarios.",
        "ADaM flags should be described in ADaM metadata."
      ],
      "prohibited_behavior": [],
      "required_behavior": "Instead of using SRCDOM, SRCVAR, and SRCSEQ in that case, the producer may elect to simply include the --SEQ variable from the source SDTM domain, which is sufficient to provide the needed traceability within a subject.",
      "required_inputs": [],
      "review_status": "CANDIDATE",
      "rule_id": "adamig:3a711104d067cffd",
      "rule_type": "CONTROLLED_TERMINOLOGY",
      "scope": {
        "candidate_kind": "controlled_terminology",
        "dataset_scope": [],
        "datasets": [],
        "structure_scope": [],
        "variable_scope": [
          "ABLFL",
          "AVAL",
          "AVALC",
          "BASE",
          "BASETYPE",
          "COMPLFL",
          "COMPLT",
          "FASFL",
          "FULLSET",
          "ITT",
          "ITTFL",
          "PPROT",
          "PPROTFL",
          "QLABEL",
          "QNAM",
          "SAFETY",
          "SAFFL",
          "SDTMIG",
          "SEQ",
          "SRCDOM",
          "SRCSEQ",
          "SRCVAR"
        ],
        "variables": [
          "ABLFL",
          "AVAL",
          "AVALC",
          "BASE",
          "BASETYPE",
          "COMPLFL",
          "COMPLT",
          "FASFL",
          "FULLSET",
          "ITT",
          "ITTFL",
          "PPROT",
          "PPROTFL",
          "QLABEL",
          "QNAM",
          "SAFETY",
          "SAFFL",
          "SDTMIG",
          "SEQ",
          "SRCDOM",
          "SRCSEQ",
          "SRCVAR"
        ]
      },
      "semantic_reconstruction_status": "CANDIDATE_RECONSTRUCTED",
      "source_hash": "9b4e433592933ffb5310243cd7b38066eec02d5890507acc92e97b54e50a9b18",
      "source_section_classification": "CONTROLLED_TERMINOLOGY",
      "standard_id": "adamig",
      "standard_name": "ADaM Implementation Guide",
      "standard_version": "1.3",
      "structure_scope": [],
      "validation_requirement": "Whenever population or baseline flags are needed for analyses, the ADaM variables must be used.",
      "validation_requirements": [
        "Whenever population or baseline flags are needed for analyses, the ADaM variables must be used."
      ],
      "variable_scope": [
        "ABLFL",
        "AVAL",
        "AVALC",
        "BASE",
        "BASETYPE",
        "COMPLFL",
        "COMPLT",
        "FASFL",
        "FULLSET",
        "ITT",
        "ITTFL",
        "PPROT",
        "PPROTFL",
        "QLABEL",
        "QNAM",
        "SAFETY",
        "SAFFL",
        "SDTMIG",
        "SEQ",
        "SRCDOM",
        "SRCSEQ",
        "SRCVAR"
      ]
    },
    {
      "applicability_conditions": [
        "The lower-case letter \"zz\" in the variable name is an index for the zzth record selection algorithm where \"zz\" is replaced with a zero-padded two-digit integer [01-99].",
        "The ANLzzFL flag is useful in many circumstances; an example is when there is more than one record for an analysis timepoint within a subject and parameter, as it can be used to identify the record chosen to represent the timepoint for an analysis.",
        "ANLzzFN cannot be present unless ANLzzFL is also present.",
        "ONTRTFN cannot be present unless ONTRTFL is also present.",
        "LVOTFN cannot be present unless LVOTFL is also present."
      ],
      "classification": "STANDARD_REQUIRED",
      "classification_status": "RESOLVED",
      "conformance_metadata": null,
      "dataset_scope": [],
      "evidence_locator": {
        "duplicate_locators": [],
        "extraction_timestamp": "2026-08-10T08:11:23+00:00",
        "page": 48,
        "parser_compiler_version": "m3r-1",
        "section": null,
        "source_binding_status": "SOURCE_BOUND",
        "source_excerpt": "CDISC Analysis Data Model Implementation Guide (1.3 Final) \u00a9 2021 Clinical Data Interchange Standards Consortium, Inc. All rights reserved Page 48 2021-11-29 Variable Name Variable Label Type Codelist/ Controlled Terms Core CDISC Notes as SITEGRy, and others. The lower-case letter \"zz\" in the variable name is an index for the zzth record selection algorithm where \"zz\" is replaced with a zero-padded two-digit integ..."
      },
      "exact_source_excerpt": "CDISC Analysis Data Model Implementation Guide (1.3 Final) \u00a9 2021 Clinical Data Interchange Standards Consortium, Inc. All rights reserved Page 48 2021-11-29 Variable Name Variable Label Type Codelist/ Controlled Terms Core CDISC Notes as SITEGRy, and others. The lower-case letter \"zz\" in the variable name is an index for the zzth record selection algorithm where \"zz\" is replaced with a zero-padded two-digit integer [01-99]. Every record selection algorithm \"zz\" (i.e., every algorithm for populating an ANLzzFL) must be defined in variable metadata. When the set of records that the algorithm \"zz\" operates on is pre-filtered by application of other criteria, such as a record-level population flag, then the selection algorithm definition in the metadata must so specify. Note that the ANLzzFL value of Y indicates that the record fulfilled the requirements of the algorithm, but does not necessarily imply that the record was actually used in one or more analyses, as whether or not a record is used also depends on the other selection variables applied. The ANLzzFL flag is useful in many circumstances; an example is when there is more than one record for an analysis timepoint within a subject and parameter, as it can be used to identify the record chosen to represent the timepoint for an analysis. \"zz\" is an index for a record selection algorithm, such as \"record closest to target relative day for the AVISIT, with ties broken by the latest record, for each AVISIT within <list of AVISITS>.\" Note that it is not required that a specific ANLzzFL variable has the same definition across a project or even across datasets within a study. There is also no requirement that the ANLzzFL variables in a dataset or study be used in numerical order; e.g. ANL02FL might occur in a dataset or study without ANL01FL present in the same dataset or study. ANLzzFN Analysis Flag zz (N) Num 1 Perm Numeric representation of ANLzzFL. There must be a one-to-one relationship between ANLzzFN and ANLzzFL within a dataset. ANLzzFN cannot be present unless ANLzzFL is also present. When ANLzzFL and ANLzzFN are present, then on a given record, either both must be populated or both must be null. ONTRTFL On Treatment Record Flag Char Y Perm Character indicator of whether the observation occurred while the subject was on treatment. ONTRTFL is producer-defined, and its definition may vary across datasets in a study based on analysis needs. ONTRTFN On Treatment Record Flag (N) Num 1 Perm Numeric representation of ONTRTFL. There must be a one-to-one relationship between ONTRTFN and ONTRTFL within a dataset. ONTRTFN cannot be present unless ONTRTFL is also present. When ONTRTFL and ONTRTFN are present, then on a given record, either both must be populated or both must be null. LVOTFL Last Value On Treatment Record Flag Char Y Perm Character indicator of the subject's last non-missing value on treatment for each parameter. LVOTFN Last Value On Treatment Record Flag (N) Num 1 Perm Numeric representation of LVOTFL. There must be a one-to-one relationship between LVOTFN and LVOTFL within a dataset. LVOTFN cannot be present unless LVOTFL is also present. When LVOTFL and LVOTFN are present, then on a given record, either both must be populated or both must be null.",
      "excluded_reason": null,
      "expected_outputs": [],
      "extraction_status": "CANDIDATE_RULE",
      "grain": null,
      "keys": [],
      "local_relative_source_path": "ADaMIG_v1.3.pdf",
      "normalized_atomic_requirement": "Every record selection algorithm \"zz\" (i.e., every algorithm for populating an ANLzzFL) must be defined in variable metadata.",
      "normative_strength": "REQUIRED",
      "official_url": "https://www.cdisc.org/system/files/members/standard/foundational/ADaMIG_v1.3.pdf",
      "permitted_variations": [
        "The ANLzzFL flag is useful in many circumstances; an example is when there is more than one record for an analysis timepoint within a subject and parameter, as it can be used to identify the record chosen to represent the timepoint for an analysis.",
        "ANLzzFN cannot be present unless ANLzzFL is also present.",
        "ONTRTFL is producer-defined, and its definition may vary across datasets in a study based on analysis needs.",
        "ONTRTFN cannot be present unless ONTRTFL is also present.",
        "LVOTFN cannot be present unless LVOTFL is also present."
      ],
      "prohibited_behavior": [],
      "required_behavior": "Every record selection algorithm \"zz\" (i.e., every algorithm for populating an ANLzzFL) must be defined in variable metadata.",
      "required_inputs": [],
      "review_status": "CANDIDATE",
      "rule_id": "adamig:405bbc2411966401",
      "rule_type": "CONTROLLED_TERMINOLOGY",
      "scope": {
        "candidate_kind": "controlled_terminology",
        "dataset_scope": [],
        "datasets": [],
        "structure_scope": [],
        "variable_scope": [
          "ANL01FL",
          "ANL02FL",
          "AVISIT",
          "AVISITS",
          "LVOTFL",
          "LVOTFN",
          "ONTRTFL",
          "ONTRTFN"
        ],
        "variables": [
          "ANL01FL",
          "ANL02FL",
          "AVISIT",
          "AVISITS",
          "LVOTFL",
          "LVOTFN",
          "ONTRTFL",
          "ONTRTFN"
        ]
      },
      "semantic_reconstruction_status": "CANDIDATE_RECONSTRUCTED",
      "source_hash": "9b4e433592933ffb5310243cd7b38066eec02d5890507acc92e97b54e50a9b18",
      "source_section_classification": "CONTROLLED_TERMINOLOGY",
      "standard_id": "adamig",
      "standard_name": "ADaM Implementation Guide",
      "standard_version": "1.3",
      "structure_scope": [],
      "validation_requirement": "Every record selection algorithm \"zz\" (i.e., every algorithm for populating an ANLzzFL) must be defined in variable metadata.",
      "validation_requirements": [
        "Every record selection algorithm \"zz\" (i.e., every algorithm for populating an ANLzzFL) must be defined in variable metadata.",
        "When the set of records that the algorithm \"zz\" operates on is pre-filtered by application of other criteria, such as a record-level population flag, then the selection algorithm definition in the metadata must so specify.",
        "There must be a one-to-one relationship between ANLzzFN and ANLzzFL within a dataset.",
        "When ANLzzFL and ANLzzFN are present, then on a given record, either both must be populated or both must be null.",
        "There must be a one-to-one relationship between ONTRTFN and ONTRTFL within a dataset.",
        "When ONTRTFL and ONTRTFN are present, then on a given record, either both must be populated or both must be null.",
        "There must be a one-to-one relationship between LVOTFN and LVOTFL within a dataset.",
        "When LVOTFL and LVOTFN are present, then on a given record, either both must be populated or both must be null."
      ],
      "variable_scope": [
        "ANL01FL",
        "ANL02FL",
        "AVISIT",
        "AVISITS",
        "LVOTFL",
        "LVOTFN",
        "ONTRTFL",
        "ONTRTFN"
      ]
    },
    {
      "applicability_conditions": [
        "AVISIT Analysis Visit Char Cond The analysis visit description; required if an analysis is done by nominal, assigned or analysis visit.",
        "AVISITN cannot be present unless AVISIT is also present.",
        "On a given record, AVISITN cannot be populated if AVISIT is null.",
        "AVISITN can be null when AVISIT is populated, as long as the one-to-one relationship is maintained within a parameter on all rows on which both variables are populated.",
        "ATPT Analysis Timepoint Char Cond The analysis timepoint description; required if an analysis is done by nominal, assigned or analysis timepoint (instead of or in addition to by-visit)."
      ],
      "classification": "STANDARD_REQUIRED",
      "classification_status": "RESOLVED",
      "conformance_metadata": null,
      "dataset_scope": [],
      "evidence_locator": {
        "duplicate_locators": [],
        "extraction_timestamp": "2026-08-10T08:11:23+00:00",
        "page": 34,
        "parser_compiler_version": "m3r-1",
        "section": null,
        "source_binding_status": "SOURCE_BOUND",
        "source_excerpt": "CDISC Analysis Data Model Implementation Guide (1.3 Final) \u00a9 2021 Clinical Data Interchange Standards Consortium, Inc. All rights reserved Page 34 2021-11-29 Variable Name Variable Label Type Codelist/ Controlled Terms Core CDISC Notes ASTDY Analysis Start Relative Day Num Cond The number of days from an anchor date (not necessarily DM.RFSTDTC) to ASTDT. See Section 3.1.2, Timing Variable Conventions. If a dataset..."
      },
      "exact_source_excerpt": "CDISC Analysis Data Model Implementation Guide (1.3 Final) \u00a9 2021 Clinical Data Interchange Standards Consortium, Inc. All rights reserved Page 34 2021-11-29 Variable Name Variable Label Type Codelist/ Controlled Terms Core CDISC Notes ASTDY Analysis Start Relative Day Num Cond The number of days from an anchor date (not necessarily DM.RFSTDTC) to ASTDT. See Section 3.1.2, Timing Variable Conventions. If a dataset contains more than one record per parameter per subject then, an SDTM or ADaM relative timing variable must be present (ASTDY would meet this requirement). ASTDTF Analysis Start Date Imputation Flag Char (DATEFL) Cond The level of imputation of analysis start date. If ASTDT (or the date part of ASTDTM) was imputed, ASTDTF must be populated and is required. See Section 3.1.3, Date and Time Imputation Flag Variables. ASTTMF Analysis Start Time Imputation Flag Char (TIMEFL) Cond The level of imputation of analysis start time. If ASTTM (or the time part of ASTDTM) was imputed, ASTTMF must be populated and is required. See Section 3.1.3, Date and Time Imputation Flag Variables. AENDT Analysis End Date Num Cond The end date associated with AVAL and/or AVALC. See also ASTDT. AENTM Analysis End Time Num Cond The end time associated with AVAL and/or AVALC. See also ASTTM. AENDTM Analysis End Datetime Num Cond The end datetime associated with AVAL and/or AVALC. See also ASTDTM. AENDY Analysis End Relative Day Num Cond The number of days from an anchor date (not necessarily DM.RFSTDTC) to AENDT. See Section 3.1.2, Timing Variable Conventions. If a dataset contains more than one record per parameter per subject, then an SDTM or ADaM relative timing variable must be present (AENDY would meet this requirement). AENDTF Analysis End Date Imputation Flag Char (DATEFL) Cond The level of imputation of analysis end date. If AENDT (or the date part of AENDTM) was imputed, AENDTF must be populated and is required. See Section 3.1.3, Date and Time Imputation Flag Variables. AENTMF Analysis End Time Imputation Flag Char (TIMEFL) Cond The level of imputation of analysis end time. If AENTM (or the time part of AENDTM) was imputed, AENTMF must be populated and is required. See Section 3.1.3, Date and Time Imputation Flag Variables. AVISIT Analysis Visit Char Cond The analysis visit description; required if an analysis is done by nominal, assigned or analysis visit. AVISIT may contain the visit names as observed (i.e., from SDTM VISIT), derived visit names, time window names, conceptual descriptions (such as Average, Endpoint, etc.), or a combination of any of these. AVISIT is a derived field and does not have to map to VISIT from the SDTM. AVISIT represents the analysis visit of the record, but it does not mean that the record was analyzed. There are often multiple records for the same subject and parameter that have the same value of AVISIT. ANLzzFL and other variables may be needed to identify the records selected for any given analysis. See Section 3.3.8, Indicator Variables for BDS Datasets, for information about flag variables. AVISIT should be unique for a given analysis visit window. In the event that a record does not fall within any predefined analysis timepoint window, AVISIT can be populated in any way that the producer chooses to indicate this fact (e.g., blank or \"Not Windowed\"). The way that AVISIT is calculated, including the variables used in its derivation, should be indicated in the variable metadata for AVISIT. The values and the rules for deriving AVISIT may be different for different parameters within the same dataset. Values of AVISIT are producer-defined, and are often directly usable in Clinical Study Report displays. If a dataset contains more than one record per parameter per subject, then an SDTM or ADaM relative timing variable must be present (AVISIT could meet this requirement). AVISITN Analysis Visit (N) Num Perm Numeric representation of AVISIT. Since study visits are usually defined by certain timepoints, defining AVISITN so that it represents the timepoint associated with the visit can facilitate plotting and interpretation of the values. Alternatively, AVISITN may be a protocol visit number, a cycle number, an analysis visit number, or any other number logically related to AVISIT or useful for sorting that is needed for analysis. There must be a one-to-one relationship between AVISITN and AVISIT (i.e., AVISITN has the same value for each distinct AVISIT) within a parameter. A best practice is to extend the one-to-one relationship to within a study, but this is not an ADaM requirement. In the event that a record does not fall within any predefined analysis timepoint window, AVISITN can be populated in any way that the producer chooses to indicate this fact (e.g., may be null). Values of AVISITN are producer-defined. AVISITN cannot be present unless AVISIT is also present. On a given record, AVISITN cannot be populated if AVISIT is null. AVISITN can be null when AVISIT is populated, as long as the one-to-one relationship is maintained within a parameter on all rows on which both variables are populated. ATPT Analysis Timepoint Char Cond The analysis timepoint description; required if an analysis is done by nominal, assigned or analysis timepoint (instead of or in addition to by-visit). Timepoints are relative to ATPTREF. ATPT may contain the timepoint names as observed (i.e., from SDTM --TPT), derived timepoint names, time window names, conceptual descriptions (such as Average, Endpoint, etc.), or a combination of any of these. This variable is often used in conjunction with AVISIT. ATPT represents the analysis timepoint of the record.",
      "excluded_reason": null,
      "expected_outputs": [],
      "extraction_status": "CANDIDATE_RULE",
      "grain": "one record per parameter per subject then, an SDTM or ADaM relative timing variable must be present (ASTDY would meet this requirement)",
      "keys": [],
      "local_relative_source_path": "ADaMIG_v1.3.pdf",
      "normalized_atomic_requirement": "If a dataset contains more than one record per parameter per subject then, an SDTM or ADaM relative timing variable must be present (ASTDY would meet this requirement).",
      "normative_strength": "REQUIRED",
      "official_url": "https://www.cdisc.org/system/files/members/standard/foundational/ADaMIG_v1.3.pdf",
      "permitted_variations": [
        "AVISIT may contain the visit names as observed (i.e., from SDTM VISIT), derived visit names, time window names, conceptual descriptions (such as Average, Endpoint, etc.), or a combination of any of these.",
        "ANLzzFL and other variables may be needed to identify the records selected for any given analysis.",
        "AVISIT should be unique for a given analysis visit window.",
        "In the event that a record does not fall within any predefined analysis timepoint window, AVISIT can be populated in any way that the producer chooses to indicate this fact (e.g., blank or \"Not Windowed\").",
        "The way that AVISIT is calculated, including the variables used in its derivation, should be indicated in the variable metadata for AVISIT.",
        "The values and the rules for deriving AVISIT may be different for different parameters within the same dataset.",
        "Since study visits are usually defined by certain timepoints, defining AVISITN so that it represents the timepoint associated with the visit can facilitate plotting and interpretation of the values.",
        "Alternatively, AVISITN may be a protocol visit number, a cycle number, an analysis visit number, or any other number logically related to AVISIT or useful for sorting that is needed for analysis.",
        "In the event that a record does not fall within any predefined analysis timepoint window, AVISITN can be populated in any way that the producer chooses to indicate this fact (e.g., may be null).",
        "AVISITN cannot be present unless AVISIT is also present.",
        "On a given record, AVISITN cannot be populated if AVISIT is null.",
        "AVISITN can be null when AVISIT is populated, as long as the one-to-one relationship is maintained within a parameter on all rows on which both variables are populated.",
        "ATPT may contain the timepoint names as observed (i.e., from SDTM --TPT), derived timepoint names, time window names, conceptual descriptions (such as Average, Endpoint, etc.), or a combination of any of these."
      ],
      "prohibited_behavior": [],
      "required_behavior": "If a dataset contains more than one record per parameter per subject then, an SDTM or ADaM relative timing variable must be present (ASTDY would meet this requirement).",
      "required_inputs": [
        "DM.RFSTDTC"
      ],
      "review_status": "CANDIDATE",
      "rule_id": "adamig:415ed1d173e15863",
      "rule_type": "CONTROLLED_TERMINOLOGY",
      "scope": {
        "candidate_kind": "controlled_terminology",
        "dataset_scope": [],
        "datasets": [],
        "structure_scope": [
          "BASIC_DATA_STRUCTURE"
        ],
        "variable_scope": [
          "AENDT",
          "AENDTF",
          "AENDTM",
          "AENDY",
          "AENTM",
          "AENTMF",
          "ASTDT",
          "ASTDTF",
          "ASTDTM",
          "ASTDY",
          "ASTTM",
          "ASTTMF",
          "ATPT",
          "ATPTREF",
          "AVAL",
          "AVALC",
          "AVISIT",
          "AVISITN",
          "DATEFL",
          "RFSTDTC",
          "TIMEFL",
          "TPT",
          "VISIT"
        ],
        "variables": [
          "AENDT",
          "AENDTF",
          "AENDTM",
          "AENDY",
          "AENTM",
          "AENTMF",
          "ASTDT",
          "ASTDTF",
          "ASTDTM",
          "ASTDY",
          "ASTTM",
          "ASTTMF",
          "ATPT",
          "ATPTREF",
          "AVAL",
          "AVALC",
          "AVISIT",
          "AVISITN",
          "DATEFL",
          "RFSTDTC",
          "TIMEFL",
          "TPT",
          "VISIT"
        ]
      },
      "semantic_reconstruction_status": "CANDIDATE_RECONSTRUCTED",
      "source_hash": "9b4e433592933ffb5310243cd7b38066eec02d5890507acc92e97b54e50a9b18",
      "source_section_classification": "CONTROLLED_TERMINOLOGY",
      "standard_id": "adamig",
      "standard_name": "ADaM Implementation Guide",
      "standard_version": "1.3",
      "structure_scope": [
        "BASIC_DATA_STRUCTURE"
      ],
      "validation_requirement": "If a dataset contains more than one record per parameter per subject then, an SDTM or ADaM relative timing variable must be present (ASTDY would meet this requirement).",
      "validation_requirements": [
        "If a dataset contains more than one record per parameter per subject then, an SDTM or ADaM relative timing variable must be present (ASTDY would meet this requirement).",
        "If ASTDT (or the date part of ASTDTM) was imputed, ASTDTF must be populated and is required.",
        "If ASTTM (or the time part of ASTDTM) was imputed, ASTTMF must be populated and is required.",
        "If a dataset contains more than one record per parameter per subject, then an SDTM or ADaM relative timing variable must be present (AENDY would meet this requirement).",
        "If AENDT (or the date part of AENDTM) was imputed, AENDTF must be populated and is required.",
        "If AENTM (or the time part of AENDTM) was imputed, AENTMF must be populated and is required.",
        "If a dataset contains more than one record per parameter per subject, then an SDTM or ADaM relative timing variable must be present (AVISIT could meet this requirement).",
        "There must be a one-to-one relationship between AVISITN and AVISIT (i.e., AVISITN has the same value for each distinct AVISIT) within a parameter."
      ],
      "variable_scope": [
        "AENDT",
        "AENDTF",
        "AENDTM",
        "AENDY",
        "AENTM",
        "AENTMF",
        "ASTDT",
        "ASTDTF",
        "ASTDTM",
        "ASTDY",
        "ASTTM",
        "ASTTMF",
        "ATPT",
        "ATPTREF",
        "AVAL",
        "AVALC",
        "AVISIT",
        "AVISITN",
        "DATEFL",
        "RFSTDTC",
        "TIMEFL",
        "TPT",
        "VISIT"
      ]
    },
    {
      "applicability_conditions": [
        "ATOXGRN cannot be present unless ATOXGR is also present.",
        "BTOXGRN cannot be present unless BTOXGR is also present.",
        "ANRIND Analysis Reference Range Indicator Char Perm Indicates where AVAL or AVALC falls with respect to the normal reference range for analysis; may be based on SDTM --NRIND or an imputed or assigned value.",
        "ANRLOC can be a character string mapping to ANRLO, but if so there must be a one-to-one relationship between ANRLO and ANRLOC within a given PARAM.",
        "Within a given parameter, if there exists a row on which both ANRLOC and ANRLO are populated, then there must be a one-to-one relationship between ANRLOC and ANRLO on all rows on which both variables are populated.",
        "(In other words, there is no requirement that records with a null value in either ANRLO or ANRLOC be included when determining whether the one-to-one relationship requirement is satisfied.) On a given record, it is permissible for ANRLO, ANRLOC, or both to be null.",
        "ANRHIC can be a character string mapping to ANRHI, but if so there must be a one-to-one relationship between ANRHI and ANRHIC within a given PARAM.",
        "Within a given parameter, if there exists a row on which both ANRHIC and ANRHI are populated, then there must be a one-to-one relationship between ANRHIC and ANRHI on all rows on which both"
      ],
      "classification": "STANDARD_REQUIRED",
      "classification_status": "RESOLVED",
      "conformance_metadata": null,
      "dataset_scope": [],
      "evidence_locator": {
        "duplicate_locators": [],
        "extraction_timestamp": "2026-08-10T08:11:23+00:00",
        "page": 45,
        "parser_compiler_version": "m3r-1",
        "section": null,
        "source_binding_status": "SOURCE_BOUND",
        "source_excerpt": "3.3.7 Toxicity and Range Variables for BDS Datasets Table 3.3.7.1 Toxicity and Range Variables for BDS Datasets Variable Name Variable Label Type Codelist/ Controlled Terms Core CDISC Notes ATOXGR Analysis Toxicity Grade Char Perm Toxicity grade of AVAL or AVALC for analysis; may be based on SDTM --TOXGR or an imputed or assigned value. ATOXGRN Analysis Toxicity Grade (N) Num Perm Numeric representation of ATOXGR...."
      },
      "exact_source_excerpt": "3.3.7 Toxicity and Range Variables for BDS Datasets Table 3.3.7.1 Toxicity and Range Variables for BDS Datasets Variable Name Variable Label Type Codelist/ Controlled Terms Core CDISC Notes ATOXGR Analysis Toxicity Grade Char Perm Toxicity grade of AVAL or AVALC for analysis; may be based on SDTM --TOXGR or an imputed or assigned value. ATOXGRN Analysis Toxicity Grade (N) Num Perm Numeric representation of ATOXGR. There must be a one-to-one relationship between ATOXGRN and ATOXGR within a parameter. ATOXGRN cannot be present unless ATOXGR is also present. When ATOXGR and ATOXGRN are present, then on a given record, either both must be populated or both must be null. BTOXGR Baseline Toxicity Grade Char Perm ATOXGR of the baseline record identified by ABLFL. BTOXGRN Baseline Toxicity Grade (N) Num Perm Numeric representation of BTOXGR. There must be a one-to-one relationship between BTOXGRN and BTOXGR within a parameter. BTOXGRN cannot be present unless BTOXGR is also present. When BTOXGR and BTOXGRN are present, then on a given record, either both must be populated or both must be null. ANRIND Analysis Reference Range Indicator Char Perm Indicates where AVAL or AVALC falls with respect to the normal reference range for analysis; may be based on SDTM --NRIND or an imputed or assigned value. BNRIND Baseline Reference Range Indicator Char Perm ANRIND of the baseline record identified by ABLFL. ANRLO Analysis Normal Range Lower Limit Num Perm Normal range lower limit for analysis; may be based on SDTM --NRLO or an imputed or assigned value. ANRLOC Analysis Normal Range Lower Limit (C) Char Perm Character analysis normal range lower limit. ANRLOC can be a character string mapping to ANRLO, but if so there must be a one-to-one relationship between ANRLO and ANRLOC within a given PARAM. ANRLOC should not be used to categorize the values of ANRLO. Within a given parameter, if there exists a row on which both ANRLOC and ANRLO are populated, then there must be a one-to-one relationship between ANRLOC and ANRLO on all rows on which both variables are populated. (In other words, there is no requirement that records with a null value in either ANRLO or ANRLOC be included when determining whether the one-to-one relationship requirement is satisfied.) On a given record, it is permissible for ANRLO, ANRLOC, or both to be null. ANRHI Analysis Normal Range Upper Limit Num Perm Normal range upper limit for analysis; may be based on SDTM --NRHI or an imputed or assigned value. ANRHIC Analysis Normal Range Upper Limit (C) Char Perm Character analysis normal range upper limit. ANRHIC can be a character string mapping to ANRHI, but if so there must be a one-to-one relationship between ANRHI and ANRHIC within a given PARAM. ANRHIC should not be used to categorize the values of ANRHI. Within a given parameter, if there exists a row on which both ANRHIC and ANRHI are populated, then there must be a one-to-one relationship between ANRHIC and ANRHI on all rows on which both",
      "excluded_reason": null,
      "expected_outputs": [],
      "extraction_status": "CANDIDATE_RULE",
      "grain": null,
      "keys": [],
      "local_relative_source_path": "ADaMIG_v1.3.pdf",
      "normalized_atomic_requirement": "3.3.7 Toxicity and Range Variables for BDS Datasets Table 3.3.7.1 Toxicity and Range Variables for BDS Datasets Variable Name Variable Label Type Codelist/ Controlled Terms Core CDISC Notes ATOXGR Analysis Toxicity Grade Char Perm Toxicity grade of AVAL or AVALC for analysis; may be based on SDTM --TOXGR or an imputed or assigned value.",
      "normative_strength": "REQUIRED",
      "official_url": "https://www.cdisc.org/system/files/members/standard/foundational/ADaMIG_v1.3.pdf",
      "permitted_variations": [
        "3.3.7 Toxicity and Range Variables for BDS Datasets Table 3.3.7.1 Toxicity and Range Variables for BDS Datasets Variable Name Variable Label Type Codelist/ Controlled Terms Core CDISC Notes ATOXGR Analysis Toxicity Grade Char Perm Toxicity grade of AVAL or AVALC for analysis; may be based on SDTM --TOXGR or an imputed or assigned value.",
        "ATOXGRN cannot be present unless ATOXGR is also present.",
        "BTOXGRN cannot be present unless BTOXGR is also present.",
        "ANRIND Analysis Reference Range Indicator Char Perm Indicates where AVAL or AVALC falls with respect to the normal reference range for analysis; may be based on SDTM --NRIND or an imputed or assigned value.",
        "ANRLO Analysis Normal Range Lower Limit Num Perm Normal range lower limit for analysis; may be based on SDTM --NRLO or an imputed or assigned value.",
        "ANRLOC can be a character string mapping to ANRLO, but if so there must be a one-to-one relationship between ANRLO and ANRLOC within a given PARAM.",
        "ANRLOC should not be used to categorize the values of ANRLO.",
        "ANRHI Analysis Normal Range Upper Limit Num Perm Normal range upper limit for analysis; may be based on SDTM --NRHI or an imputed or assigned value.",
        "ANRHIC can be a character string mapping to ANRHI, but if so there must be a one-to-one relationship between ANRHI and ANRHIC within a given PARAM.",
        "ANRHIC should not be used to categorize the values of ANRHI."
      ],
      "prohibited_behavior": [],
      "required_behavior": "3.3.7 Toxicity and Range Variables for BDS Datasets Table 3.3.7.1 Toxicity and Range Variables for BDS Datasets Variable Name Variable Label Type Codelist/ Controlled Terms Core CDISC Notes ATOXGR Analysis Toxicity Grade Char Perm Toxicity grade of AVAL or AVALC for analysis; may be based on SDTM --TOXGR or an imputed or assigned value.",
      "required_inputs": [],
      "review_status": "CANDIDATE",
      "rule_id": "adamig:431e6a6f5c33477b",
      "rule_type": "CONTROLLED_TERMINOLOGY",
      "scope": {
        "candidate_kind": "controlled_terminology",
        "dataset_scope": [],
        "datasets": [],
        "structure_scope": [
          "BASIC_DATA_STRUCTURE"
        ],
        "variable_scope": [
          "ABLFL",
          "ANRHI",
          "ANRHIC",
          "ANRIND",
          "ANRLO",
          "ANRLOC",
          "ATOXGR",
          "ATOXGRN",
          "AVAL",
          "AVALC",
          "BNRIND",
          "BTOXGR",
          "BTOXGRN",
          "NRHI",
          "NRIND",
          "NRLO",
          "PARAM",
          "TOXGR"
        ],
        "variables": [
          "ABLFL",
          "ANRHI",
          "ANRHIC",
          "ANRIND",
          "ANRLO",
          "ANRLOC",
          "ATOXGR",
          "ATOXGRN",
          "AVAL",
          "AVALC",
          "BNRIND",
          "BTOXGR",
          "BTOXGRN",
          "NRHI",
          "NRIND",
          "NRLO",
          "PARAM",
          "TOXGR"
        ]
      },
      "semantic_reconstruction_status": "CANDIDATE_RECONSTRUCTED",
      "source_hash": "9b4e433592933ffb5310243cd7b38066eec02d5890507acc92e97b54e50a9b18",
      "source_section_classification": "CONTROLLED_TERMINOLOGY",
      "standard_id": "adamig",
      "standard_name": "ADaM Implementation Guide",
      "standard_version": "1.3",
      "structure_scope": [
        "BASIC_DATA_STRUCTURE"
      ],
      "validation_requirement": "There must be a one-to-one relationship between ATOXGRN and ATOXGR within a parameter.",
      "validation_requirements": [
        "There must be a one-to-one relationship between ATOXGRN and ATOXGR within a parameter.",
        "When ATOXGR and ATOXGRN are present, then on a given record, either both must be populated or both must be null.",
        "There must be a one-to-one relationship between BTOXGRN and BTOXGR within a parameter.",
        "When BTOXGR and BTOXGRN are present, then on a given record, either both must be populated or both must be null.",
        "ANRLOC can be a character string mapping to ANRLO, but if so there must be a one-to-one relationship between ANRLO and ANRLOC within a given PARAM.",
        "Within a given parameter, if there exists a row on which both ANRLOC and ANRLO are populated, then there must be a one-to-one relationship between ANRLOC and ANRLO on all rows on which both variables are populated.",
        "ANRHIC can be a character string mapping to ANRHI, but if so there must be a one-to-one relationship between ANRHI and ANRHIC within a given PARAM.",
        "Within a given parameter, if there exists a row on which both ANRHIC and ANRHI are populated, then there must be a one-to-one relationship between ANRHIC and ANRHI on all rows on which both"
      ],
      "variable_scope": [
        "ABLFL",
        "ANRHI",
        "ANRHIC",
        "ANRIND",
        "ANRLO",
        "ANRLOC",
        "ATOXGR",
        "ATOXGRN",
        "AVAL",
        "AVALC",
        "BNRIND",
        "BTOXGR",
        "BTOXGRN",
        "NRHI",
        "NRIND",
        "NRLO",
        "PARAM",
        "TOXGR"
      ]
    },
    {
      "applicability_conditions": [
        "APERIODC cannot be present unless APERIOD is also present.",
        "Within each APERIOD, the first ASPER is 1 (i.e., it resets to 1 when the APERIOD value changes)."
      ],
      "classification": "STANDARD_REQUIRED",
      "classification_status": "RESOLVED",
      "conformance_metadata": null,
      "dataset_scope": [
        "ADSL"
      ],
      "evidence_locator": {
        "duplicate_locators": [],
        "extraction_timestamp": "2026-08-10T08:11:23+00:00",
        "page": 35,
        "parser_compiler_version": "m3r-1",
        "section": null,
        "source_binding_status": "SOURCE_BOUND",
        "source_excerpt": "APERIODC Period (C) Char Perm Text characterizing to which analysis period the record belongs. There must be a one-to-one relationship between APERIODC and APERIOD within a study. APERIODC cannot be present unless APERIOD is also present. When APERIOD and APERIODC are present, then on a given record, either both must be populated or both must be null. ASPER Subperiod within Period Num Perm The numeric value charac..."
      },
      "exact_source_excerpt": "APERIODC Period (C) Char Perm Text characterizing to which analysis period the record belongs. There must be a one-to-one relationship between APERIODC and APERIOD within a study. APERIODC cannot be present unless APERIOD is also present. When APERIOD and APERIODC are present, then on a given record, either both must be populated or both must be null. ASPER Subperiod within Period Num Perm The numeric value characterizing a sublevel within APERIOD to which the record belongs. Within each APERIOD, the first ASPER is 1 (i.e., it resets to 1 when the APERIOD value changes). The value of ASPER (if populated) must be one of the w values found in the ADSL PxxSw variable names.",
      "excluded_reason": null,
      "expected_outputs": [
        "ADSL",
        "ADSL.APERIOD",
        "ADSL.APERIODC",
        "ADSL.ASPER"
      ],
      "extraction_status": "CANDIDATE_RULE",
      "grain": null,
      "keys": [],
      "local_relative_source_path": "ADaMIG_v1.3.pdf",
      "normalized_atomic_requirement": "There must be a one-to-one relationship between APERIODC and APERIOD within a study.",
      "normative_strength": "REQUIRED",
      "official_url": "https://www.cdisc.org/system/files/members/standard/foundational/ADaMIG_v1.3.pdf",
      "permitted_variations": [
        "APERIODC cannot be present unless APERIOD is also present."
      ],
      "prohibited_behavior": [],
      "required_behavior": "There must be a one-to-one relationship between APERIODC and APERIOD within a study.",
      "required_inputs": [],
      "review_status": "CANDIDATE",
      "rule_id": "adamig:4e1d606a8f96b070",
      "rule_type": "OPERATIVE_RULE",
      "scope": {
        "candidate_kind": "variable_requirement",
        "dataset_scope": [
          "ADSL"
        ],
        "datasets": [
          "ADSL"
        ],
        "structure_scope": [],
        "variable_scope": [
          "APERIOD",
          "APERIODC",
          "ASPER"
        ],
        "variables": [
          "APERIOD",
          "APERIODC",
          "ASPER"
        ]
      },
      "semantic_reconstruction_status": "CANDIDATE_RECONSTRUCTED",
      "source_hash": "9b4e433592933ffb5310243cd7b38066eec02d5890507acc92e97b54e50a9b18",
      "source_section_classification": "OPERATIVE_RULE",
      "standard_id": "adamig",
      "standard_name": "ADaM Implementation Guide",
      "standard_version": "1.3",
      "structure_scope": [],
      "validation_requirement": "There must be a one-to-one relationship between APERIODC and APERIOD within a study.",
      "validation_requirements": [
        "There must be a one-to-one relationship between APERIODC and APERIOD within a study.",
        "When APERIOD and APERIODC are present, then on a given record, either both must be populated or both must be null.",
        "The value of ASPER (if populated) must be one of the w values found in the ADSL PxxSw variable names."
      ],
      "variable_scope": [
        "APERIOD",
        "APERIODC",
        "ASPER"
      ]
    },
    {
      "applicability_conditions": [
        "TRTSDT and/or TRTSDTM are required if there is an investigational product.",
        "TRTEDT and/or TRTEDTM are required if there is an investigational product.",
        "TRxxSDT and/or TRxxSDTM are only required in trial designs where multiple treatment periods are defined (i.e., required when there is a TRTxxP other than TRT01P).",
        "Examples include crossover designs or designs where multiple periods exist for the same treatment.",
        "TRxxSTM and/or TRxxSDTM are only required in trial designs where starting time is important to the analysis and multiple treatment periods are defined (i.e., required when there is a TRTxxP other than TRT01P)."
      ],
      "classification": "STANDARD_REQUIRED",
      "classification_status": "RESOLVED",
      "conformance_metadata": null,
      "dataset_scope": [
        "ADSL"
      ],
      "evidence_locator": {
        "duplicate_locators": [],
        "extraction_timestamp": "2026-08-10T08:11:23+00:00",
        "page": 25,
        "parser_compiler_version": "m3r-1",
        "section": null,
        "source_binding_status": "SOURCE_BOUND",
        "source_excerpt": "Table 3.2.6 ADSL Treatment Timing Variables Variable Name Variable Label Type Codelist/ Controlled Terms Core CDISC Notes TRTSDT Date of First Exposure to Treatment Num Cond Date of first exposure to treatment for a subject in a study. TRTSDT and/or TRTSDTM are required if there is an investigational product. Note that TRTSDT is not required to have the same value as the SDTM DM variable RFXSTDTC. While both of th..."
      },
      "exact_source_excerpt": "Table 3.2.6 ADSL Treatment Timing Variables Variable Name Variable Label Type Codelist/ Controlled Terms Core CDISC Notes TRTSDT Date of First Exposure to Treatment Num Cond Date of first exposure to treatment for a subject in a study. TRTSDT and/or TRTSDTM are required if there is an investigational product. Note that TRTSDT is not required to have the same value as the SDTM DM variable RFXSTDTC. While both of these dates reflect the concept of first exposure, the ADaM date may be derived to support the analysis which may not necessarily be the very first date in the SDTM EX domain. TRTSTM Time of First Exposure to Treatment Num Perm Time of first exposure to treatment for a subject in a study. TRTSDTM Datetime of First Exposure to Treatment Num Cond Datetime of first exposure to treatment for a subject in a study. TRTSDT and/or TRTSDTM are required if there is an investigational product. TRTSDTF Date of First Exposure Imput. Flag Char (DATEFL) Cond The level of imputation of date of first exposure to treatment. If TRTSDT (or the date part of TRTSDTM) was imputed, TRTSDTF must be populated and is required. See Section 3.1.3, Date and Time Imputation Flag Variables. TRTSTMF Time of First Exposure Imput. Flag Char (TIMEFL) Cond The level of imputation of time of first exposure to treatment. If TRTSTM (or the time part of TRTSDTM) was imputed, TRTSTMF must be populated and is required. See Section 3.1.3, Date and Time Imputation Flag Variables. TRTEDT Date of Last Exposure to Treatment Num Cond Date of last exposure to treatment for a subject in a study. TRTEDT and/or TRTEDTM are required if there is an investigational product. Note that TRTEDT is not required to have the same value as the SDTM DM variable RFXENDTC. While both of these dates reflect the concept of last exposure, the ADaM date may be derived to support the analysis which may not necessarily be the very last date in the SDTM EX domain. TRTETM Time of Last Exposure to Treatment Num Perm Time of last exposure to treatment for a subject in a study. TRTEDTM Datetime of Last Exposure to Treatment Num Cond Datetime of last exposure to treatment for a subject in a study. TRTEDT and/or TRTEDTM are required if there is an investigational product. TRTEDTF Date of Last Exposure Imput. Flag Char (DATEFL) Cond The level of imputation of date of last exposure to treatment. If TRTEDT (or the date part of TRTEDTM) was imputed, TRTEDTF must be populated and is required. See Section 3.1.3, Date and Time Imputation Flag Variables. TRTETMF Time of Last Exposure Imput. Flag Char (TIMEFL) Cond The level of imputation of time of last exposure to treatment. If TRTETM (or the time part of TRTEDTM) was imputed, TRTETMF must be populated and is required. See Section 3.1.3, Date and Time Imputation Flag Variables. TRxxSDT Date of First Exposure in Period xx Num Cond Date of first exposure to treatment in period xx. TRxxSDT and/or TRxxSDTM are only required in trial designs where multiple treatment periods are defined (i.e., required when there is a TRTxxP other than TRT01P). Examples include crossover designs or designs where multiple periods exist for the same treatment. TRxxSTM Time of First Exposure in Period xx Num Cond Starting time of exposure to treatment in period xx. TRxxSTM and/or TRxxSDTM are only required in trial designs where starting time is important to the analysis and multiple treatment periods are defined (i.e., required when there is a TRTxxP other than TRT01P).",
      "excluded_reason": null,
      "expected_outputs": [
        "ADSL",
        "ADSL.DATEFL",
        "ADSL.RFXENDTC",
        "ADSL.RFXSTDTC",
        "ADSL.TIMEFL",
        "ADSL.TRT01P",
        "ADSL.TRTEDT",
        "ADSL.TRTEDTF",
        "ADSL.TRTEDTM",
        "ADSL.TRTETM",
        "ADSL.TRTETMF",
        "ADSL.TRTSDT",
        "ADSL.TRTSDTF",
        "ADSL.TRTSDTM",
        "ADSL.TRTSTM",
        "ADSL.TRTSTMF"
      ],
      "extraction_status": "CANDIDATE_RULE",
      "grain": null,
      "keys": [],
      "local_relative_source_path": "ADaMIG_v1.3.pdf",
      "normalized_atomic_requirement": "TRTSDT and/or TRTSDTM are required if there is an investigational product.",
      "normative_strength": "REQUIRED",
      "official_url": "https://www.cdisc.org/system/files/members/standard/foundational/ADaMIG_v1.3.pdf",
      "permitted_variations": [
        "While both of these dates reflect the concept of first exposure, the ADaM date may be derived to support the analysis which may not necessarily be the very first date in the SDTM EX domain.",
        "While both of these dates reflect the concept of last exposure, the ADaM date may be derived to support the analysis which may not necessarily be the very last date in the SDTM EX domain."
      ],
      "prohibited_behavior": [],
      "required_behavior": "TRTSDT and/or TRTSDTM are required if there is an investigational product.",
      "required_inputs": [],
      "review_status": "CANDIDATE",
      "rule_id": "adamig:502cb80bfa97d4f2",
      "rule_type": "CONTROLLED_TERMINOLOGY",
      "scope": {
        "candidate_kind": "controlled_terminology",
        "dataset_scope": [
          "ADSL"
        ],
        "datasets": [
          "ADSL"
        ],
        "structure_scope": [],
        "variable_scope": [
          "DATEFL",
          "RFXENDTC",
          "RFXSTDTC",
          "TIMEFL",
          "TRT01P",
          "TRTEDT",
          "TRTEDTF",
          "TRTEDTM",
          "TRTETM",
          "TRTETMF",
          "TRTSDT",
          "TRTSDTF",
          "TRTSDTM",
          "TRTSTM",
          "TRTSTMF"
        ],
        "variables": [
          "DATEFL",
          "RFXENDTC",
          "RFXSTDTC",
          "TIMEFL",
          "TRT01P",
          "TRTEDT",
          "TRTEDTF",
          "TRTEDTM",
          "TRTETM",
          "TRTETMF",
          "TRTSDT",
          "TRTSDTF",
          "TRTSDTM",
          "TRTSTM",
          "TRTSTMF"
        ]
      },
      "semantic_reconstruction_status": "CANDIDATE_RECONSTRUCTED",
      "source_hash": "9b4e433592933ffb5310243cd7b38066eec02d5890507acc92e97b54e50a9b18",
      "source_section_classification": "CONTROLLED_TERMINOLOGY",
      "standard_id": "adamig",
      "standard_name": "ADaM Implementation Guide",
      "standard_version": "1.3",
      "structure_scope": [],
      "validation_requirement": "If TRTSDT (or the date part of TRTSDTM) was imputed, TRTSDTF must be populated and is required.",
      "validation_requirements": [
        "If TRTSDT (or the date part of TRTSDTM) was imputed, TRTSDTF must be populated and is required.",
        "If TRTSTM (or the time part of TRTSDTM) was imputed, TRTSTMF must be populated and is required.",
        "If TRTEDT (or the date part of TRTEDTM) was imputed, TRTEDTF must be populated and is required.",
        "If TRTETM (or the time part of TRTEDTM) was imputed, TRTETMF must be populated and is required."
      ],
      "variable_scope": [
        "DATEFL",
        "RFXENDTC",
        "RFXSTDTC",
        "TIMEFL",
        "TRT01P",
        "TRTEDT",
        "TRTEDTF",
        "TRTEDTM",
        "TRTETM",
        "TRTETMF",
        "TRTSDT",
        "TRTSDTF",
        "TRTSDTM",
        "TRTSTM",
        "TRTSTMF"
      ]
    },
    {
      "applicability_conditions": [
        "Required if CRITyFL is present.",
        "Required if CRITy is present.",
        "CRITyFN cannot be present unless CRITyFL is also present.",
        "MCRITy Analysis Multi-Response Criterion y Char Perm A text string identifying a pre-specified criterion within a parameter, where the criterion can have multiple responses (as opposed to CRITy which has binary responses).",
        "Required if MCRITyML is present.",
        "Required if MCRITy is present.",
        "MCRITyMN cannot be present unless MCRITyML is also present.",
        "The following are some examples of when DTYPE is required:"
      ],
      "classification": "STANDARD_REQUIRED",
      "classification_status": "RESOLVED",
      "conformance_metadata": null,
      "dataset_scope": [],
      "evidence_locator": {
        "duplicate_locators": [],
        "extraction_timestamp": "2026-08-10T08:11:23+00:00",
        "page": 42,
        "parser_compiler_version": "m3r-1",
        "section": null,
        "source_binding_status": "SOURCE_BOUND",
        "source_excerpt": "CDISC Analysis Data Model Implementation Guide (1.3 Final) \u00a9 2021 Clinical Data Interchange Standards Consortium, Inc. All rights reserved Page 42 2021-11-29 3.3.4.3 Analysis Parameter Criteria Variables for BDS Datasets Table 3.3.4.3.1 BDS Analysis Parameter Criteria Variables Variable Name Variable Label Type Codelist/ Controlled Terms Core CDISC Notes CRITy Analysis Criterion y Char Perm A text string identifyi..."
      },
      "exact_source_excerpt": "CDISC Analysis Data Model Implementation Guide (1.3 Final) \u00a9 2021 Clinical Data Interchange Standards Consortium, Inc. All rights reserved Page 42 2021-11-29 3.3.4.3 Analysis Parameter Criteria Variables for BDS Datasets Table 3.3.4.3.1 BDS Analysis Parameter Criteria Variables Variable Name Variable Label Type Codelist/ Controlled Terms Core CDISC Notes CRITy Analysis Criterion y Char Perm A text string identifying a pre-specified criterion within a parameter, for example SYSBP > 90. Required if CRITyFL is present. In some cases, the presence of the text string indicates that the criterion is satisfied on this record and CRITyFL is set to Y, while a null value indicates that the criterion is not satisfied or is not evaluable and is accompanied by a null value in CRITyFL. In other cases, the text string identifies the criterion being evaluated and is populated on every row for the parameter, but whether or not the criterion is satisfied is indicated by the value of the variable CRITyFL. See CRITyFL and CRITyFN. Refer to Section 4.7, Identification of Records which Satisfy a Predefined Criterion for Analysis Purposes, for additional discussion of CRITy, CRITyFL and CRITyFN. CRITyFL Criterion y Evaluation Result Flag Char Y or Y, N Cond Character flag variable indicating whether the criterion defined in CRITy was met by the data on the record. See CRITy for more information regarding how to use CRITy and CRITyFL to indicate whether a criterion is met. Required if CRITy is present. Refer to Section 4.7, Identification of Records which Satisfy a Predefined Criterion for Analysis Purposes, for additional discussion. CRITyFN Criterion y Evaluation Result Flag (N) Num 1 or 1, 0 Perm Numeric representation of CRITyFL. There must be a one-to-one relationship between CRITyFN and CRITyFL within a parameter. CRITyFN cannot be present unless CRITyFL is also present. When CRITyFL and CRITyFN are present, then on a given record, either both must be populated or both must be null. MCRITy Analysis Multi-Response Criterion y Char Perm A text string identifying a pre-specified criterion within a parameter, where the criterion can have multiple responses (as opposed to CRITy which has binary responses). Required if MCRITyML is present. For example, the grade of a lab analyte is compared to the baseline grade, with the possible conditions being 0 to 1, 0 to 2, etc. The text string identifies the criterion being evaluated (for example, \"Grade increase\") and is populated on every row for the parameter; which level of the criterion is satisfied is indicated by the value of the variable MCRITyML (for example \"0 to 1\", \"0 to 2\", etc.). See MCRITyML and MCRITyMN below, and refer to Section 4.7, Identification of Records which Satisfy a Predefined Criterion for Analysis Purposes, for additional discussion of MCRITy, MCRITyML, and MCRITyMN. MCRITyML Multi-Response Criterion y Evaluation Char Cond Character variable indicating which level of the criterion defined in MCRITy was met by the data on the record. See MCRITy for more information regarding how to use MCRITy and MCRITyML to indicate whether a criterion was met. Content is sponsor-defined. Required if MCRITy is present. MCRITyMN Multi-Response Criterion y Eval (N) Num Perm Numeric representation of MCRITyML. There must be a one-to-one relationship between MCRITyMN and MCRITyML within a parameter. Content is sponsor-defined. MCRITyMN cannot be present unless MCRITyML is also present. When MCRITyML and MCRITyMN are present, then on a given record, either both must be populated or both must be null. 3.3.5 Analysis Descriptor Variables for BDS Datasets For a given parameter within a BDS dataset, it is important (1) to be able to distinguish analysis values that are special cases of AVAL/AVALC (those for which the value is determined differently than the other analysis values within the parameter), and (2) to understand what method or algorithm was used to populate each special case. The variable DTYPE (see Table 3.3.5.1) is to be used to identify records within a given parameter that contain these special-case analysis values. The value of DTYPE indicates the method used for populating the analysis value; a null value of DTYPE indicates the analysis value was not a special case. The metadata for AVAL (or AVALC) will give further information about the details of any algorithm or statistical method used to derive or impute these values. The following are some examples of when DTYPE is required:",
      "excluded_reason": null,
      "expected_outputs": [],
      "extraction_status": "CANDIDATE_RULE",
      "grain": null,
      "keys": [],
      "local_relative_source_path": "ADaMIG_v1.3.pdf",
      "normalized_atomic_requirement": "There must be a one-to-one relationship between CRITyFN and CRITyFL within a parameter.",
      "normative_strength": "REQUIRED",
      "official_url": "https://www.cdisc.org/system/files/members/standard/foundational/ADaMIG_v1.3.pdf",
      "permitted_variations": [
        "CRITyFN cannot be present unless CRITyFL is also present.",
        "MCRITy Analysis Multi-Response Criterion y Char Perm A text string identifying a pre-specified criterion within a parameter, where the criterion can have multiple responses (as opposed to CRITy which has binary responses).",
        "MCRITyMN cannot be present unless MCRITyML is also present."
      ],
      "prohibited_behavior": [],
      "required_behavior": "There must be a one-to-one relationship between CRITyFN and CRITyFL within a parameter.",
      "required_inputs": [],
      "review_status": "CANDIDATE",
      "rule_id": "adamig:570dddf55e398b46",
      "rule_type": "CONTROLLED_TERMINOLOGY",
      "scope": {
        "candidate_kind": "controlled_terminology",
        "dataset_scope": [],
        "datasets": [],
        "structure_scope": [
          "BASIC_DATA_STRUCTURE"
        ],
        "variable_scope": [
          "AVAL",
          "AVALC",
          "DTYPE",
          "SYSBP"
        ],
        "variables": [
          "AVAL",
          "AVALC",
          "DTYPE",
          "SYSBP"
        ]
      },
      "semantic_reconstruction_status": "CANDIDATE_RECONSTRUCTED",
      "source_hash": "9b4e433592933ffb5310243cd7b38066eec02d5890507acc92e97b54e50a9b18",
      "source_section_classification": "CONTROLLED_TERMINOLOGY",
      "standard_id": "adamig",
      "standard_name": "ADaM Implementation Guide",
      "standard_version": "1.3",
      "structure_scope": [
        "BASIC_DATA_STRUCTURE"
      ],
      "validation_requirement": "There must be a one-to-one relationship between CRITyFN and CRITyFL within a parameter.",
      "validation_requirements": [
        "There must be a one-to-one relationship between CRITyFN and CRITyFL within a parameter.",
        "When CRITyFL and CRITyFN are present, then on a given record, either both must be populated or both must be null.",
        "There must be a one-to-one relationship between MCRITyMN and MCRITyML within a parameter.",
        "When MCRITyML and MCRITyMN are present, then on a given record, either both must be populated or both must be null."
      ],
      "variable_scope": [
        "AVAL",
        "AVALC",
        "DTYPE",
        "SYSBP"
      ]
    },
    {
      "applicability_conditions": [],
      "classification": "STANDARD_REQUIRED",
      "classification_status": "RESOLVED",
      "conformance_metadata": null,
      "dataset_scope": [],
      "evidence_locator": {
        "duplicate_locators": [],
        "extraction_timestamp": "2026-08-10T08:11:23+00:00",
        "page": 38,
        "parser_compiler_version": "m3r-1",
        "section": null,
        "source_binding_status": "SOURCE_BOUND",
        "source_excerpt": "CDISC Analysis Data Model Implementation Guide (1.3 Final) \u00a9 2021 Clinical Data Interchange Standards Consortium, Inc. All rights reserved Page 38 2021-11-29 Variable Name Variable Label Type Codelist/ Controlled Terms Core CDISC Notes *EDTF {End Date Imputation Flag} Char (DATEFL) Cond The level of imputation of *EDT. If *EDT (or the date part of *EDTM) was imputed, *EDTF must be populated and is required. See Se..."
      },
      "exact_source_excerpt": "CDISC Analysis Data Model Implementation Guide (1.3 Final) \u00a9 2021 Clinical Data Interchange Standards Consortium, Inc. All rights reserved Page 38 2021-11-29 Variable Name Variable Label Type Codelist/ Controlled Terms Core CDISC Notes *EDTF {End Date Imputation Flag} Char (DATEFL) Cond The level of imputation of *EDT. If *EDT (or the date part of *EDTM) was imputed, *EDTF must be populated and is required. See Section 3.1.3, Date and Time Imputation Flag Variables. *ETMF {End Time Imputation Flag} Char (TIMEFL) Cond The level of imputation of *ETM. If *ETM (or the time part of *EDTM) was imputed, *ETMF must be populated and is required. See Section 3.1.3, Date and Time Imputation Flag Variables.",
      "excluded_reason": null,
      "expected_outputs": [],
      "extraction_status": "CANDIDATE_RULE",
      "grain": null,
      "keys": [],
      "local_relative_source_path": "ADaMIG_v1.3.pdf",
      "normalized_atomic_requirement": "If *EDT (or the date part of *EDTM) was imputed, *EDTF must be populated and is required.",
      "normative_strength": "REQUIRED",
      "official_url": "https://www.cdisc.org/system/files/members/standard/foundational/ADaMIG_v1.3.pdf",
      "permitted_variations": [],
      "prohibited_behavior": [],
      "required_behavior": "If *EDT (or the date part of *EDTM) was imputed, *EDTF must be populated and is required.",
      "required_inputs": [],
      "review_status": "CANDIDATE",
      "rule_id": "adamig:59ed5112bf8dce8c",
      "rule_type": "CONTROLLED_TERMINOLOGY",
      "scope": {
        "candidate_kind": "controlled_terminology",
        "dataset_scope": [],
        "datasets": [],
        "structure_scope": [],
        "variable_scope": [
          "DATEFL",
          "EDT",
          "EDTF",
          "EDTM",
          "ETM",
          "ETMF",
          "TIMEFL"
        ],
        "variables": [
          "DATEFL",
          "EDT",
          "EDTF",
          "EDTM",
          "ETM",
          "ETMF",
          "TIMEFL"
        ]
      },
      "semantic_reconstruction_status": "CANDIDATE_RECONSTRUCTED",
      "source_hash": "9b4e433592933ffb5310243cd7b38066eec02d5890507acc92e97b54e50a9b18",
      "source_section_classification": "CONTROLLED_TERMINOLOGY",
      "standard_id": "adamig",
      "standard_name": "ADaM Implementation Guide",
      "standard_version": "1.3",
      "structure_scope": [],
      "validation_requirement": "If *EDT (or the date part of *EDTM) was imputed, *EDTF must be populated and is required.",
      "validation_requirements": [
        "If *EDT (or the date part of *EDTM) was imputed, *EDTF must be populated and is required.",
        "If *ETM (or the time part of *EDTM) was imputed, *ETMF must be populated and is required."
      ],
      "variable_scope": [
        "DATEFL",
        "EDT",
        "EDTF",
        "EDTM",
        "ETM",
        "ETMF",
        "TIMEFL"
      ]
    },
    {
      "applicability_conditions": [
        "Though there is no requirement that TRTP will correspond to the TRTxxP as defined by the record's value of APERIOD, if populated, TRTP must match at least one value of the character planned treatment variables in ADSL (e.g., TRTxxP, TRTSEQP, TRxxPGy).",
        "Even if not used for analysis, any ADSL treatment variable may be included in the BDS dataset.",
        "TRTPN cannot be present unless TRTP is also present.",
        "TRTAN cannot be present unless TRTA is also present.",
        "Useful when planned treatments (TRTP) are pooled together for analysis, for example when all doses of Drug A (TRTPG1=All doses of Drug A) are compared to all doses of Drug B (TRTPG1=All doses of Drug B).",
        "TRTPGyN cannot be present unless TRTPGy is also present.",
        "Required when TRTPGy is present and TRTA is present.",
        "TRTAGyN cannot be present unless TRTAGy is also present."
      ],
      "classification": "STANDARD_REQUIRED",
      "classification_status": "RESOLVED",
      "conformance_metadata": null,
      "dataset_scope": [
        "ADSL"
      ],
      "evidence_locator": {
        "duplicate_locators": [],
        "extraction_timestamp": "2026-08-10T08:11:23+00:00",
        "page": 32,
        "parser_compiler_version": "m3r-1",
        "section": null,
        "source_binding_status": "SOURCE_BOUND",
        "source_excerpt": "CDISC Analysis Data Model Implementation Guide (1.3 Final) \u00a9 2021 Clinical Data Interchange Standards Consortium, Inc. All rights reserved Page 32 2021-11-29 Table 3.3.2.1 Record-Level Treatment Variables for BDS Datasets Variable Name Variable Label Type Codelist/ Controlled Terms Core CDISC Notes TRTP Planned Treatment Char Cond TRTP is a record-level identifier that represents the planned treatment attributed t..."
      },
      "exact_source_excerpt": "CDISC Analysis Data Model Implementation Guide (1.3 Final) \u00a9 2021 Clinical Data Interchange Standards Consortium, Inc. All rights reserved Page 32 2021-11-29 Table 3.3.2.1 Record-Level Treatment Variables for BDS Datasets Variable Name Variable Label Type Codelist/ Controlled Terms Core CDISC Notes TRTP Planned Treatment Char Cond TRTP is a record-level identifier that represents the planned treatment attributed to a record for analysis purposes. TRTP indicates how treatment varies by record within a subject and enables analysis of crossover and other designs. Though there is no requirement that TRTP will correspond to the TRTxxP as defined by the record's value of APERIOD, if populated, TRTP must match at least one value of the character planned treatment variables in ADSL (e.g., TRTxxP, TRTSEQP, TRxxPGy). As noted previously, at least one treatment variable is required even in non-randomized trials. This requirement is satisfied by any subject-level or record-level treatment variables (e.g., TRTxxP, TRTP, TRTA). Even if not used for analysis, any ADSL treatment variable may be included in the BDS dataset. TRTPN Planned Treatment (N) Num Perm Numeric representation of TRTP. There must be a one-to-one relationship between TRTPN and TRTP within a study. TRTPN cannot be present unless TRTP is also present. When TRTP and TRTPN are present, then on a given record, either both must be populated or both must be null. TRTA Actual Treatment Char Cond TRTA is a record-level identifier that represents the actual treatment attributed to a record for analysis purposes. TRTA indicates how treatment varies by record within a subject and enables analysis of crossover and other multi-period designs. Though there is no requirement that TRTA will correspond to the TRTxxA as defined by the record's value of APERIOD, TRTA must match at least one value of the character actual treatment variables in ADSL (e.g., TRTxxA, TRTSEQA, TRxxAGy). As noted previously, at least one treatment variable is required. This requirement is satisfied by any subject-level or record-level treatment variables (e.g., TRTxxP, TRTP, TRTA). Even if not used for analysis, any ADSL treatment variable may be included in the BDS dataset. TRTAN Actual Treatment (N) Num Perm Numeric representation of TRTA. There must be a one-to-one relationship between TRTAN and TRTA within a study. TRTAN cannot be present unless TRTA is also present. When TRTA and TRTAN are present, then on a given record, either both must be populated or both must be null. TRTPGy Planned Pooled Treatment y Char Perm TRTPGy is the planned pooled treatment y attributed to a record for analysis purposes. \"y\" represents an integer [1-99, not zero-padded] corresponding to a particular pooling scheme. Useful when planned treatments (TRTP) are pooled together for analysis, for example when all doses of Drug A (TRTPG1=All doses of Drug A) are compared to all doses of Drug B (TRTPG1=All doses of Drug B). Each value of TRTP is pooled within at most one value of TRTPGy. TRTPGyN Planned Pooled Treatment y (N) Num Perm Numeric representation of TRTPGy. There must be a one-to-one relationship between TRTPGyN and TRTPGy within a study. TRTPGyN cannot be present unless TRTPGy is also present. When TRTPGy and TRTPGyN are present, then on a given record, either both must be populated or both must be null. TRTAGy Actual Pooled Treatment y Char Cond TRTAGy is the actual pooled treatment y attributed to a record for analysis purposes. \"y\" represents an integer [1-99, not zero-padded] corresponding to a particular pooling scheme. Required when TRTPGy is present and TRTA is present. TRTAGyN Actual Pooled Treatment y (N) Num Perm Numeric representation of TRTAGy. There must be a one-to-one relationship between TRTAGyN and TRTAGy within a study. TRTAGyN cannot be present unless TRTAGy is also present. When TRTAGy and TRTAGyN are present, then on a given record, either both must be populated or both must be null. All dose variables defined in Table 3.3.2.2 are record level. This means that the values contained in the variable may vary by record within a subject. These record-level dose variables, plus ADSL subject-level dose variables, can be used in addition to, but not instead of, record-level treatment variables.",
      "excluded_reason": null,
      "expected_outputs": [
        "ADSL",
        "ADSL.APERIOD",
        "ADSL.TRTA",
        "ADSL.TRTAN",
        "ADSL.TRTP",
        "ADSL.TRTPG1",
        "ADSL.TRTPN",
        "ADSL.TRTSEQA",
        "ADSL.TRTSEQP"
      ],
      "extraction_status": "CANDIDATE_RULE",
      "grain": null,
      "keys": [],
      "local_relative_source_path": "ADaMIG_v1.3.pdf",
      "normalized_atomic_requirement": "Though there is no requirement that TRTP will correspond to the TRTxxP as defined by the record's value of APERIOD, if populated, TRTP must match at least one value of the character planned treatment variables in ADSL (e.g., TRTxxP, TRTSEQP, TRxxPGy).",
      "normative_strength": "REQUIRED",
      "official_url": "https://www.cdisc.org/system/files/members/standard/foundational/ADaMIG_v1.3.pdf",
      "permitted_variations": [
        "Even if not used for analysis, any ADSL treatment variable may be included in the BDS dataset.",
        "TRTPN cannot be present unless TRTP is also present.",
        "TRTAN cannot be present unless TRTA is also present.",
        "TRTPGyN cannot be present unless TRTPGy is also present.",
        "TRTAGyN cannot be present unless TRTAGy is also present.",
        "This means that the values contained in the variable may vary by record within a subject.",
        "These record-level dose variables, plus ADSL subject-level dose variables, can be used in addition to, but not instead of, record-level treatment variables."
      ],
      "prohibited_behavior": [],
      "required_behavior": "Though there is no requirement that TRTP will correspond to the TRTxxP as defined by the record's value of APERIOD, if populated, TRTP must match at least one value of the character planned treatment variables in ADSL (e.g., TRTxxP, TRTSEQP, TRxxPGy).",
      "required_inputs": [],
      "review_status": "CANDIDATE",
      "rule_id": "adamig:62768081f362b01b",
      "rule_type": "CONTROLLED_TERMINOLOGY",
      "scope": {
        "candidate_kind": "controlled_terminology",
        "dataset_scope": [
          "ADSL"
        ],
        "datasets": [
          "ADSL"
        ],
        "structure_scope": [
          "BASIC_DATA_STRUCTURE"
        ],
        "variable_scope": [
          "APERIOD",
          "TRTA",
          "TRTAN",
          "TRTP",
          "TRTPG1",
          "TRTPN",
          "TRTSEQA",
          "TRTSEQP"
        ],
        "variables": [
          "APERIOD",
          "TRTA",
          "TRTAN",
          "TRTP",
          "TRTPG1",
          "TRTPN",
          "TRTSEQA",
          "TRTSEQP"
        ]
      },
      "semantic_reconstruction_status": "CANDIDATE_RECONSTRUCTED",
      "source_hash": "9b4e433592933ffb5310243cd7b38066eec02d5890507acc92e97b54e50a9b18",
      "source_section_classification": "CONTROLLED_TERMINOLOGY",
      "standard_id": "adamig",
      "standard_name": "ADaM Implementation Guide",
      "standard_version": "1.3",
      "structure_scope": [
        "BASIC_DATA_STRUCTURE"
      ],
      "validation_requirement": "Though there is no requirement that TRTP will correspond to the TRTxxP as defined by the record's value of APERIOD, if populated, TRTP must match at least one value of the character planned treatment variables in ADSL (e.g., TRTxxP, TRTSEQP, TRxxPGy).",
      "validation_requirements": [
        "Though there is no requirement that TRTP will correspond to the TRTxxP as defined by the record's value of APERIOD, if populated, TRTP must match at least one value of the character planned treatment variables in ADSL (e.g., TRTxxP, TRTSEQP, TRxxPGy).",
        "There must be a one-to-one relationship between TRTPN and TRTP within a study.",
        "When TRTP and TRTPN are present, then on a given record, either both must be populated or both must be null.",
        "Though there is no requirement that TRTA will correspond to the TRTxxA as defined by the record's value of APERIOD, TRTA must match at least one value of the character actual treatment variables in ADSL (e.g., TRTxxA, TRTSEQA, TRxxAGy).",
        "There must be a one-to-one relationship between TRTAN and TRTA within a study.",
        "When TRTA and TRTAN are present, then on a given record, either both must be populated or both must be null.",
        "There must be a one-to-one relationship between TRTPGyN and TRTPGy within a study.",
        "When TRTPGy and TRTPGyN are present, then on a given record, either both must be populated or both must be null.",
        "There must be a one-to-one relationship between TRTAGyN and TRTAGy within a study.",
        "When TRTAGy and TRTAGyN are present, then on a given record, either both must be populated or both must be null."
      ],
      "variable_scope": [
        "APERIOD",
        "TRTA",
        "TRTAN",
        "TRTP",
        "TRTPG1",
        "TRTPN",
        "TRTSEQA",
        "TRTSEQP"
      ]
    },
    {
      "applicability_conditions": [
        "AVAL is required if AVALC is not present, since either AVAL or AVALC must be present in the dataset.",
        "AVALC can be a character string mapping to AVAL, but if so there must be a one-to-one relationship between AVAL and AVALC within a given PARAM.",
        "Within a given parameter, if there exists a row on which both AVALC and AVAL are populated, then there must be a one-to-one relationship between AVALC and AVAL on all rows on which both variables are populated.",
        "(In other words, there is no requirement that records with a null value in either AVAL or AVALC be included when determining whether the one-to-one relationship requirement is satisfied.) On a given record, it is permissible for AVAL, AVALC, or both to be null.",
        "AVALC is required if AVAL is not present, since either AVAL or AVALC must be present in the dataset.",
        "For example, if PARAM is \"Headache Severity\" and AVAL has values 0, 1, 2, or 3, AVALCAT1 can categorize AVAL into \"None or Mild\" (for AVAL 0 or 1) and \"Moderate or Severe\" (for AVAL 2 or 3).",
        "AVALCAyN cannot be present unless AVALCATy is also present.",
        "BASE Baseline Value Num Cond The subject's baseline analysis value for a parameter and baseline definition (i.e., BASETYPE) if present.",
        "Required if dataset supports analysis or review of numeric baseline value or functions of numeric baseline value.",
        "BASEC Baseline Value (C) Char Perm The subject's baseline value of AVALC for a parameter and baseline definition (i.e., BASETYPE) if present.",
        "May be needed when AVALC is of interest.",
        "Within a given parameter, if there exists a row on which both BASEC and BASE are populated, then there must be a one-to-one relationship between BASEC and BASE on all rows on which both variables are populated.",
        "(In other words, there is no requirement that records with a null value in either BASE or BASEC be included when determining whether the one-to-one relationship requirement is satisfied.) On a given record, it is permissible for BASE, BASEC, or both to be null.",
        "For example, if PARAM is \"Headache Severity\" and AVAL has values 0, 1, 2, or 3, BASECAT1 can categorize BASE into \"None or Mild\" (for BASE 0 or 1) and \"Moderate or Severe\" (for BASE 2 or 3).",
        "BASECAyN cannot be present unless BASECATy is also present.",
        "Required when there are multiple ways that baseline is defined.",
        "If used for any PARAM within a dataset, it must be non-null for all records for that PARAM within that dataset where either BASE or BASEC are also non-null."
      ],
      "classification": "STANDARD_REQUIRED",
      "classification_status": "RESOLVED",
      "conformance_metadata": null,
      "dataset_scope": [],
      "evidence_locator": {
        "duplicate_locators": [],
        "extraction_timestamp": "2026-08-10T08:11:23+00:00",
        "page": 39,
        "parser_compiler_version": "m3r-1",
        "section": null,
        "source_binding_status": "SOURCE_BOUND",
        "source_excerpt": "CDISC Analysis Data Model Implementation Guide (1.3 Final) \u00a9 2021 Clinical Data Interchange Standards Consortium, Inc. All rights reserved Page 39 2021-11-29 Variable Name Variable Label Type Codelist/ Controlled Terms Core CDISC Notes AVAL Analysis Value Num Cond Numeric analysis value described by PARAM. On a given record, it is permissible for AVAL, AVALC, or both to be null. AVAL is required if AVALC is not pr..."
      },
      "exact_source_excerpt": "CDISC Analysis Data Model Implementation Guide (1.3 Final) \u00a9 2021 Clinical Data Interchange Standards Consortium, Inc. All rights reserved Page 39 2021-11-29 Variable Name Variable Label Type Codelist/ Controlled Terms Core CDISC Notes AVAL Analysis Value Num Cond Numeric analysis value described by PARAM. On a given record, it is permissible for AVAL, AVALC, or both to be null. AVAL is required if AVALC is not present, since either AVAL or AVALC must be present in the dataset. AVALC Analysis Value (C) Char Cond Character analysis value described by PARAM. AVALC can be a character string mapping to AVAL, but if so there must be a one-to-one relationship between AVAL and AVALC within a given PARAM. AVALC should not be used to categorize the values of AVAL. Within a given parameter, if there exists a row on which both AVALC and AVAL are populated, then there must be a one-to-one relationship between AVALC and AVAL on all rows on which both variables are populated. (In other words, there is no requirement that records with a null value in either AVAL or AVALC be included when determining whether the one-to-one relationship requirement is satisfied.) On a given record, it is permissible for AVAL, AVALC, or both to be null. AVALC is required if AVAL is not present, since either AVAL or AVALC must be present in the dataset. AVALCATy Analysis Value Category y Char Perm A categorization of AVAL or AVALC within a parameter. Not necessarily a one-to-one mapping to AVAL and/or AVALC. For example, if PARAM is \"Headache Severity\" and AVAL has values 0, 1, 2, or 3, AVALCAT1 can categorize AVAL into \"None or Mild\" (for AVAL 0 or 1) and \"Moderate or Severe\" (for AVAL 2 or 3). AVALCATy is parameter variant. AVALCAyN Analysis Value Category y (N) Num Perm Numeric representation of AVALCATy. Useful for ordering of values of AVALCATy or for other purposes. There must be a one-to-one relationship between AVALCAyN and AVALCATy within a parameter. AVALCAyN cannot be present unless AVALCATy is also present. When AVALCATy and AVALCAyN are present, then on a given record, either both must be populated or both must be null. BASE Baseline Value Num Cond The subject's baseline analysis value for a parameter and baseline definition (i.e., BASETYPE) if present. BASE contains the value of AVAL copied from a record within the parameter on which ABLFL = \"Y\". Required if dataset supports analysis or review of numeric baseline value or functions of numeric baseline value. If BASE is populated for a parameter, and BASE is non-null for a subject for that parameter, then there must be a record flagged by ABLFL for that subject and parameter. Note that a baseline record may be derived (e.g., it may be an average) in which case DTYPE must be populated on the baseline record. BASEC Baseline Value (C) Char Perm The subject's baseline value of AVALC for a parameter and baseline definition (i.e., BASETYPE) if present. May be needed when AVALC is of interest. BASEC contains the value of AVALC copied from a record within the parameter on which ABLFL = \"Y\". If both AVAL and AVALC are populated within a parameter, the baseline record for AVALC must be the same record as that for AVAL. Within a given parameter, if there exists a row on which both BASEC and BASE are populated, then there must be a one-to-one relationship between BASEC and BASE on all rows on which both variables are populated. (In other words, there is no requirement that records with a null value in either BASE or BASEC be included when determining whether the one-to-one relationship requirement is satisfied.) On a given record, it is permissible for BASE, BASEC, or both to be null. BASECATy Baseline Category y Char Perm A categorization of BASE or BASEC within a parameter. Not necessarily a one-to-one mapping to BASE or BASEC. For example, if PARAM is \"Headache Severity\" and AVAL has values 0, 1, 2, or 3, BASECAT1 can categorize BASE into \"None or Mild\" (for BASE 0 or 1) and \"Moderate or Severe\" (for BASE 2 or 3). BASECAyN Baseline Category y (N) Num Perm Numeric representation of BASECATy. Useful for ordering of values of BASECATy or for other purposes. There must be a one-to-one relationship between BASECAyN and BASECATy within a parameter. BASECAyN cannot be present unless BASECATy is also present. When BASECATy and BASECAyN are present, then on a given record, either both must be populated or both must be null. BASETYPE Baseline Type Char Cond Producer-defined text describing the definition of baseline relevant to the value of BASE on the current record. Required when there are multiple ways that baseline is defined. If used for any PARAM within a dataset, it must be non-null for all records for that PARAM within that dataset where either BASE or BASEC are also non-null. Refer to Section 4.2.1.6, Rule 6, for an example. CHG Change from Baseline Num Perm Change from baseline analysis value. Equal to AVAL-BASE. If used for a given PARAM, should be populated for all post-baseline records of that PARAM regardless of whether that record is used for analysis. The decision on how to populate pre-baseline and baseline values of CHG is left to producer choice.",
      "excluded_reason": null,
      "expected_outputs": [],
      "extraction_status": "CANDIDATE_RULE",
      "grain": null,
      "keys": [],
      "local_relative_source_path": "ADaMIG_v1.3.pdf",
      "normalized_atomic_requirement": "AVAL is required if AVALC is not present, since either AVAL or AVALC must be present in the dataset.",
      "normative_strength": "REQUIRED",
      "official_url": "https://www.cdisc.org/system/files/members/standard/foundational/ADaMIG_v1.3.pdf",
      "permitted_variations": [
        "AVALC can be a character string mapping to AVAL, but if so there must be a one-to-one relationship between AVAL and AVALC within a given PARAM.",
        "AVALC should not be used to categorize the values of AVAL.",
        "For example, if PARAM is \"Headache Severity\" and AVAL has values 0, 1, 2, or 3, AVALCAT1 can categorize AVAL into \"None or Mild\" (for AVAL 0 or 1) and \"Moderate or Severe\" (for AVAL 2 or 3).",
        "AVALCAyN cannot be present unless AVALCATy is also present.",
        "Note that a baseline record may be derived (e.g., it may be an average) in which case DTYPE must be populated on the baseline record.",
        "May be needed when AVALC is of interest.",
        "For example, if PARAM is \"Headache Severity\" and AVAL has values 0, 1, 2, or 3, BASECAT1 can categorize BASE into \"None or Mild\" (for BASE 0 or 1) and \"Moderate or Severe\" (for BASE 2 or 3).",
        "BASECAyN cannot be present unless BASECATy is also present.",
        "If used for a given PARAM, should be populated for all post-baseline records of that PARAM regardless of whether that record is used for analysis."
      ],
      "prohibited_behavior": [],
      "required_behavior": "AVAL is required if AVALC is not present, since either AVAL or AVALC must be present in the dataset.",
      "required_inputs": [],
      "review_status": "CANDIDATE",
      "rule_id": "adamig:677c8b591c2500b1",
      "rule_type": "CONTROLLED_TERMINOLOGY",
      "scope": {
        "candidate_kind": "controlled_terminology",
        "dataset_scope": [],
        "datasets": [],
        "structure_scope": [],
        "variable_scope": [
          "ABLFL",
          "AVAL",
          "AVALC",
          "AVALCAT1",
          "BASE",
          "BASEC",
          "BASECAT1",
          "BASETYPE",
          "CHG",
          "DTYPE",
          "PARAM"
        ],
        "variables": [
          "ABLFL",
          "AVAL",
          "AVALC",
          "AVALCAT1",
          "BASE",
          "BASEC",
          "BASECAT1",
          "BASETYPE",
          "CHG",
          "DTYPE",
          "PARAM"
        ]
      },
      "semantic_reconstruction_status": "CANDIDATE_RECONSTRUCTED",
      "source_hash": "9b4e433592933ffb5310243cd7b38066eec02d5890507acc92e97b54e50a9b18",
      "source_section_classification": "CONTROLLED_TERMINOLOGY",
      "standard_id": "adamig",
      "standard_name": "ADaM Implementation Guide",
      "standard_version": "1.3",
      "structure_scope": [],
      "validation_requirement": "AVAL is required if AVALC is not present, since either AVAL or AVALC must be present in the dataset.",
      "validation_requirements": [
        "AVAL is required if AVALC is not present, since either AVAL or AVALC must be present in the dataset.",
        "AVALC can be a character string mapping to AVAL, but if so there must be a one-to-one relationship between AVAL and AVALC within a given PARAM.",
        "Within a given parameter, if there exists a row on which both AVALC and AVAL are populated, then there must be a one-to-one relationship between AVALC and AVAL on all rows on which both variables are populated.",
        "AVALC is required if AVAL is not present, since either AVAL or AVALC must be present in the dataset.",
        "There must be a one-to-one relationship between AVALCAyN and AVALCATy within a parameter.",
        "When AVALCATy and AVALCAyN are present, then on a given record, either both must be populated or both must be null.",
        "If BASE is populated for a parameter, and BASE is non-null for a subject for that parameter, then there must be a record flagged by ABLFL for that subject and parameter.",
        "Note that a baseline record may be derived (e.g., it may be an average) in which case DTYPE must be populated on the baseline record.",
        "If both AVAL and AVALC are populated within a parameter, the baseline record for AVALC must be the same record as that for AVAL.",
        "Within a given parameter, if there exists a row on which both BASEC and BASE are populated, then there must be a one-to-one relationship between BASEC and BASE on all rows on which both variables are populated.",
        "There must be a one-to-one relationship between BASECAyN and BASECATy within a parameter.",
        "When BASECATy and BASECAyN are present, then on a given record, either both must be populated or both must be null.",
        "If used for any PARAM within a dataset, it must be non-null for all records for that PARAM within that dataset where either BASE or BASEC are also non-null."
      ],
      "variable_scope": [
        "ABLFL",
        "AVAL",
        "AVALC",
        "AVALCAT1",
        "BASE",
        "BASEC",
        "BASECAT1",
        "BASETYPE",
        "CHG",
        "DTYPE",
        "PARAM"
      ]
    },
    {
      "applicability_conditions": [
        "4.7.2 When the Criterion Has Multiple Responses ADaM Methodology ADaM methodology provides an analysis criterion variable, MCRITy, paired with a criterion evaluation result flag, MCRITyML (\"Multi-Response Criterion y Evaluation\"), to identify which level of a multiple response criterion is met.",
        "Variable MCRITyML must be present on the dataset if variable MCRITy is present.",
        "MCRITyMN is permitted if a numeric result flag is needed."
      ],
      "classification": "STANDARD_REQUIRED",
      "classification_status": "RESOLVED",
      "conformance_metadata": null,
      "dataset_scope": [],
      "evidence_locator": {
        "duplicate_locators": [],
        "extraction_timestamp": "2026-08-10T08:11:23+00:00",
        "page": 80,
        "parser_compiler_version": "m3r-1",
        "section": null,
        "source_binding_status": "SOURCE_BOUND",
        "source_excerpt": "CDISC Analysis Data Model Implementation Guide (1.3 Final) \u00a9 2021 Clinical Data Interchange Standards Consortium, Inc. All rights reserved Page 80 2021-11-29 Table 4.7.1.3 ADaM Dataset with Both Compound and Non-compound Criteria Row USUBJID PARAM AVAL AVALC BASE CHG CRIT1 CRIT1FL CRIT1FN CRIT2 CRIT2FL CRIT2FN 1 1001 Systolic Blood Pressure (mm Hg) 163 148 15 Systolic Pressure > 160 Y 1 Change from Baseline in Sys..."
      },
      "exact_source_excerpt": "CDISC Analysis Data Model Implementation Guide (1.3 Final) \u00a9 2021 Clinical Data Interchange Standards Consortium, Inc. All rights reserved Page 80 2021-11-29 Table 4.7.1.3 ADaM Dataset with Both Compound and Non-compound Criteria Row USUBJID PARAM AVAL AVALC BASE CHG CRIT1 CRIT1FL CRIT1FN CRIT2 CRIT2FL CRIT2FN 1 1001 Systolic Blood Pressure (mm Hg) 163 148 15 Systolic Pressure > 160 Y 1 Change from Baseline in Systolic Pressure > 10 Y 1 2 1001 Diastolic Blood Pressure (mm Hg) 96 87 9 Diastolic Pressure > 95 Y 1 3 1001 Systolic Pressure >160 and Diastolic Pressure > 95 Y Note that criterion \"Diastolic Pressure >95\" (row 2) can coexist in the same CRIT1 column with \"Systolic Pressure >160\" (Row 1). Each of these criteria is specific to its own subset of PARAM rows. 4.7.2 When the Criterion Has Multiple Responses ADaM Methodology ADaM methodology provides an analysis criterion variable, MCRITy, paired with a criterion evaluation result flag, MCRITyML (\"Multi-Response Criterion y Evaluation\"), to identify which level of a multiple response criterion is met. These variables are defined in Section 3.3.4, Analysis Parameter Variables for BDS Datasets. MCRITy is populated with a text description identifying the criterion being evaluated. The definition of MCRITy can use any variable(s) located on the row and the definition must stay constant across all rows within the same value of PARAM. A complex criterion which draws from multiple rows (different parameters or multiple rows for a single parameter) will require a new PARAM be created. MCRITyML is the character flag variable that indicates which level of the criterion defined in MCRITy was met. Variable MCRITyML must be present on the dataset if variable MCRITy is present. MCRITyMN is permitted if a numeric result flag is needed. MCRITy and MCRITyML facilitate subgroup analyses. The ADaM methodology does not preclude the addition of rows (in contrast to the addition of multiple MCRITy and MCRITyML columns) to the BDS for the criterion MCRITy. However, MCRITy must be kept constant (if populated) across all rows within the same value of PARAM. MCRITy, MCRITyML, and MCRITyMN are not parameter-invariant in that MCRITy can vary across parameters within a dataset, as can the Controlled Terminology used for the corresponding MCRITyML and MCRITyMN. In other words, MCRITy for one parameter can be different than MCRITy for a different parameter in the same dataset. Example 1 Table 4.7.2.1 illustrates partial laboratory data for alanine aminotransferase (IU/L). As with other examples, some of the necessary columns for analysis and traceability (e.g., CHG, PCHG, AWTARGET, AWTDIFF, LBSEQ) have been excluded from the illustration. In this example, ALT values are evaluated for changes in toxicity grade. (Laboratory grading in this example is based on CTCAE Version 4, so Grade 1 is >ULN - 3.0 x ULN, Grade 2 is >3.0 - 5.0 x ULN, Grade 3 is >5.0 - 20.0 x ULN, and Grade 4 >20.0 x ULN.) In a typical analysis situation, it is of interest to know the shift in the number of toxicity grades from baseline. Generally, an increase from a grade 1 at baseline to a grade 3 at a post-baseline visit is treated the same as an increase from grade 2 to grade 4; that is, both of these are considered an increase in 2 grades. Note that for some laboratory analytes, only increases in toxicity grades are of interest. For other analytes, the interest is only in decreases in toxicity grades. Finally, for a few analytes, the change in toxicity in both directions (increases and decreases) is of interest.",
      "excluded_reason": null,
      "expected_outputs": [],
      "extraction_status": "CANDIDATE_RULE",
      "grain": null,
      "keys": [],
      "local_relative_source_path": "ADaMIG_v1.3.pdf",
      "normalized_atomic_requirement": "The definition of MCRITy can use any variable(s) located on the row and the definition must stay constant across all rows within the same value of PARAM.",
      "normative_strength": "REQUIRED",
      "official_url": "https://www.cdisc.org/system/files/members/standard/foundational/ADaMIG_v1.3.pdf",
      "permitted_variations": [
        "All rights reserved Page 80 2021-11-29 Table 4.7.1.3 ADaM Dataset with Both Compound and Non-compound Criteria Row USUBJID PARAM AVAL AVALC BASE CHG CRIT1 CRIT1FL CRIT1FN CRIT2 CRIT2FL CRIT2FN 1 1001 Systolic Blood Pressure (mm Hg) 163 148 15 Systolic Pressure > 160 Y 1 Change from Baseline in Systolic Pressure > 10 Y 1 2 1001 Diastolic Blood Pressure (mm Hg) 96 87 9 Diastolic Pressure > 95 Y 1 3 1001 Systolic Pre...",
        "The definition of MCRITy can use any variable(s) located on the row and the definition must stay constant across all rows within the same value of PARAM.",
        "MCRITy, MCRITyML, and MCRITyMN are not parameter-invariant in that MCRITy can vary across parameters within a dataset, as can the Controlled Terminology used for the corresponding MCRITyML and MCRITyMN.",
        "In other words, MCRITy for one parameter can be different than MCRITy for a different parameter in the same dataset."
      ],
      "prohibited_behavior": [],
      "required_behavior": "The definition of MCRITy can use any variable(s) located on the row and the definition must stay constant across all rows within the same value of PARAM.",
      "required_inputs": [],
      "review_status": "CANDIDATE",
      "rule_id": "adamig:6c3a0a21a8720208",
      "rule_type": "CONTROLLED_TERMINOLOGY",
      "scope": {
        "candidate_kind": "controlled_terminology",
        "dataset_scope": [],
        "datasets": [],
        "structure_scope": [
          "BASIC_DATA_STRUCTURE"
        ],
        "variable_scope": [
          "ALT",
          "AVAL",
          "AVALC",
          "AWTARGET",
          "AWTDIFF",
          "BASE",
          "CHG",
          "CRIT1",
          "CRIT1FL",
          "CRIT1FN",
          "CRIT2",
          "CRIT2FL",
          "CRIT2FN",
          "CTCAE",
          "LBSEQ",
          "PARAM",
          "PCHG",
          "ULN",
          "USUBJID"
        ],
        "variables": [
          "ALT",
          "AVAL",
          "AVALC",
          "AWTARGET",
          "AWTDIFF",
          "BASE",
          "CHG",
          "CRIT1",
          "CRIT1FL",
          "CRIT1FN",
          "CRIT2",
          "CRIT2FL",
          "CRIT2FN",
          "CTCAE",
          "LBSEQ",
          "PARAM",
          "PCHG",
          "ULN",
          "USUBJID"
        ]
      },
      "semantic_reconstruction_status": "CANDIDATE_RECONSTRUCTED",
      "source_hash": "9b4e433592933ffb5310243cd7b38066eec02d5890507acc92e97b54e50a9b18",
      "source_section_classification": "CONTROLLED_TERMINOLOGY",
      "standard_id": "adamig",
      "standard_name": "ADaM Implementation Guide",
      "standard_version": "1.3",
      "structure_scope": [
        "BASIC_DATA_STRUCTURE"
      ],
      "validation_requirement": "The definition of MCRITy can use any variable(s) located on the row and the definition must stay constant across all rows within the same value of PARAM.",
      "validation_requirements": [
        "The definition of MCRITy can use any variable(s) located on the row and the definition must stay constant across all rows within the same value of PARAM.",
        "Variable MCRITyML must be present on the dataset if variable MCRITy is present.",
        "However, MCRITy must be kept constant (if populated) across all rows within the same value of PARAM."
      ],
      "variable_scope": [
        "ALT",
        "AVAL",
        "AVALC",
        "AWTARGET",
        "AWTDIFF",
        "BASE",
        "CHG",
        "CRIT1",
        "CRIT1FL",
        "CRIT1FN",
        "CRIT2",
        "CRIT2FL",
        "CRIT2FN",
        "CTCAE",
        "LBSEQ",
        "PARAM",
        "PCHG",
        "ULN",
        "USUBJID"
      ]
    },
    {
      "applicability_conditions": [
        "Useful when the subject is included in the subject-level population, but there are records for the subject that do not satisfy requirements for the population.",
        "If a flag is used, the corresponding numeric version (*FN, where 1=Yes) of the flag can also be included.",
        "As described in Item 8 in Section 3.1.1 General Variable Conventions , the *FN version of the variable can be included only if the corresponding *FL is also included."
      ],
      "classification": "STANDARD_GUIDED",
      "classification_status": "RESOLVED",
      "conformance_metadata": null,
      "dataset_scope": [],
      "evidence_locator": {
        "duplicate_locators": [],
        "extraction_timestamp": "2026-08-10T08:11:23+00:00",
        "page": 48,
        "parser_compiler_version": "m3r-1",
        "section": null,
        "source_binding_status": "SOURCE_BOUND",
        "source_excerpt": "Table 3.3.8.2 BDS Population Indicators Variable Name Variable Label Type Codelist/ Controlled Terms Core CDISC Notes ITTRFL Intent-To-Treat Record-Level Flag Char Y Perm These indicators identify whether or not the subject was in the specified analysis for the specific record. Useful when the subject is included in the subject-level population, but there are records for the subject that do not satisfy requirement..."
      },
      "exact_source_excerpt": "Table 3.3.8.2 BDS Population Indicators Variable Name Variable Label Type Codelist/ Controlled Terms Core CDISC Notes ITTRFL Intent-To-Treat Record-Level Flag Char Y Perm These indicators identify whether or not the subject was in the specified analysis for the specific record. Useful when the subject is included in the subject-level population, but there are records for the subject that do not satisfy requirements for the population. The valid values of these record-level population indicators are Y or null. If a flag is used, the corresponding numeric version (*FN, where 1=Yes) of the flag can also be included. As described in Item 8 in Section 3.1.1 General Variable Conventions , the *FN version of the variable can be included only if the corresponding *FL is also included. Additional indicators may also be used; refer to Section 3.1.4, Flag Variable Conventions. SAFRFL Safety Analysis Record- Level Flag Char Y Perm FASRFL Full Analysis Set Record- Level Flag Char Y Perm PPROTRFL Per-Protocol Record-Level Flag Char Y Perm COMPLRFL Completers Record-Level Flag Char Y Perm ITTPFL Intent-To-Treat Parameter- Level Flag Char Y Perm",
      "excluded_reason": null,
      "expected_outputs": [],
      "extraction_status": "CANDIDATE_RULE",
      "grain": null,
      "keys": [],
      "local_relative_source_path": "ADaMIG_v1.3.pdf",
      "normalized_atomic_requirement": "Additional indicators may also be used; refer to Section 3.1.4, Flag Variable Conventions.",
      "normative_strength": "GUIDED",
      "official_url": "https://www.cdisc.org/system/files/members/standard/foundational/ADaMIG_v1.3.pdf",
      "permitted_variations": [
        "If a flag is used, the corresponding numeric version (*FN, where 1=Yes) of the flag can also be included.",
        "As described in Item 8 in Section 3.1.1 General Variable Conventions , the *FN version of the variable can be included only if the corresponding *FL is also included.",
        "Additional indicators may also be used; refer to Section 3.1.4, Flag Variable Conventions."
      ],
      "prohibited_behavior": [],
      "required_behavior": "Additional indicators may also be used; refer to Section 3.1.4, Flag Variable Conventions.",
      "required_inputs": [],
      "review_status": "CANDIDATE",
      "rule_id": "adamig:733ca3fda89b3925",
      "rule_type": "CONTROLLED_TERMINOLOGY",
      "scope": {
        "candidate_kind": "controlled_terminology",
        "dataset_scope": [],
        "datasets": [],
        "structure_scope": [
          "BASIC_DATA_STRUCTURE"
        ],
        "variable_scope": [
          "COMPLRFL",
          "FASRFL",
          "ITTPFL",
          "ITTRFL",
          "PPROTRFL",
          "SAFRFL"
        ],
        "variables": [
          "COMPLRFL",
          "FASRFL",
          "ITTPFL",
          "ITTRFL",
          "PPROTRFL",
          "SAFRFL"
        ]
      },
      "semantic_reconstruction_status": "CANDIDATE_RECONSTRUCTED",
      "source_hash": "9b4e433592933ffb5310243cd7b38066eec02d5890507acc92e97b54e50a9b18",
      "source_section_classification": "CONTROLLED_TERMINOLOGY",
      "standard_id": "adamig",
      "standard_name": "ADaM Implementation Guide",
      "standard_version": "1.3",
      "structure_scope": [
        "BASIC_DATA_STRUCTURE"
      ],
      "validation_requirement": null,
      "validation_requirements": [],
      "variable_scope": [
        "COMPLRFL",
        "FASRFL",
        "ITTPFL",
        "ITTRFL",
        "PPROTRFL",
        "SAFRFL"
      ]
    },
    {
      "applicability_conditions": [
        "Useful when the subject is included in the subject-level population, but there are parameters for which the subject does not satisfy requirements for the population.",
        "If a flag is used, the corresponding numeric version (*FN, where 1=Yes) of the flag can also be included.",
        "As described in Item 8 in Section 3.1.1 General Variable Conventions, the *FN version of the variable can be included only if the corresponding *FL is also included.",
        "Primary candidates for datapoint traceability, when used in conjunction with USUBJID, include the dataset or domain name, the name of the source variable, and the relevant sequence number (SDTM domain -\u2011SEQ value or the ADaM ASEQ value).",
        "The ADaM ASEQ variable (see Table 3.3.1.1) facilitates datapoint traceability by providing sequence numbers that are unique within a subject within an ADaM dataset, ensuring uniqueness of a record when used in combination with USUBJID.",
        "These variables are useful in situations where a single ADaM dataset or multiple SDTM datasets and/or ADaM datasets were used to create an ADaM dataset.",
        "If the value of AVAL or AVALC in the ADaM dataset is taken from another ADaM dataset, SRCDOM, SRCVAR, and SRCSEQ will contain the name of the source ADaM dataset, the variable name, and the ASEQ value of the row where the source datapoint is located, respectively.",
        "SRCDOM, SRCVAR, and SRCSEQ are permissible and, if included in a dataset, do not all need to be populated on every row.",
        "For example, if the value of AVAL or AVALC is a summary of multiple rows from a single ADaM or SDTM dataset, then SRCDOM will be populated, SRCVAR will be populated if the same variable is summarized across all of the rows, and SRCSEQ will be left blank.",
        "In another example, if multiple SDTM and/or ADaM datasets are used to create AVAL or AVALC, then SRCDOM, SRCVAR, and SRCSEQ will all be left blank."
      ],
      "classification": "STANDARD_GUIDED",
      "classification_status": "RESOLVED",
      "conformance_metadata": null,
      "dataset_scope": [],
      "evidence_locator": {
        "duplicate_locators": [],
        "extraction_timestamp": "2026-08-10T08:11:23+00:00",
        "page": 49,
        "parser_compiler_version": "m3r-1",
        "section": null,
        "source_binding_status": "SOURCE_BOUND",
        "source_excerpt": "CDISC Analysis Data Model Implementation Guide (1.3 Final) \u00a9 2021 Clinical Data Interchange Standards Consortium, Inc. All rights reserved Page 49 2021-11-29 Variable Name Variable Label Type Codelist/ Controlled Terms Core CDISC Notes SAFPFL Safety Analysis Parameter- Level Flag Char Y Perm These indicators identify whether or not the subject was in the specified analysis for the specific parameter. Useful when t..."
      },
      "exact_source_excerpt": "CDISC Analysis Data Model Implementation Guide (1.3 Final) \u00a9 2021 Clinical Data Interchange Standards Consortium, Inc. All rights reserved Page 49 2021-11-29 Variable Name Variable Label Type Codelist/ Controlled Terms Core CDISC Notes SAFPFL Safety Analysis Parameter- Level Flag Char Y Perm These indicators identify whether or not the subject was in the specified analysis for the specific parameter. Useful when the subject is included in the subject-level population, but there are parameters for which the subject does not satisfy requirements for the population. The valid values of these parameter-level population indicators are Y or null. If a flag is used, the corresponding numeric version (*FN, where 1=Yes) of the flag can also be included. As described in Item 8 in Section 3.1.1 General Variable Conventions, the *FN version of the variable can be included only if the corresponding *FL is also included. Additional indicators may also be used; refer to Section 3.1.4, Flag Variable Conventions. FASPFL Full Analysis Set Parameter- Level Flag Char Y Perm PPROTPFL Per-Protocol Parameter- Level Flag Char Y Perm COMPLPFL Completers Parameter-Level Flag Char Y Perm 3.3.9 Datapoint Traceability Variables Variables to support datapoint traceability should be included whenever practical and feasible. Primary candidates for datapoint traceability, when used in conjunction with USUBJID, include the dataset or domain name, the name of the source variable, and the relevant sequence number (SDTM domain -\u2011SEQ value or the ADaM ASEQ value). The ADaM ASEQ variable (see Table 3.3.1.1) facilitates datapoint traceability by providing sequence numbers that are unique within a subject within an ADaM dataset, ensuring uniqueness of a record when used in combination with USUBJID. Table 3.3.9.1 defines additional variables useful in certain situations to facilitate datapoint traceability. These variables are useful in situations where a single ADaM dataset or multiple SDTM datasets and/or ADaM datasets were used to create an ADaM dataset. Section 4.4, Inclusion of Input Data That Are Not Analyzed But That Support a Derivation in the ADaM Dataset, contains an example of how to use these variables. Variables used for datapoint traceability may also include any other variables that facilitate transparency and clarity of derivations and analysis. Table 3.3.9.1 Datapoint Traceability Variables Variable Name Variable Label Type Codelist/ Controlled Terms Core CDISC Notes SRCDOM Source Data Char Perm The SDTM domain name or ADaM dataset name that relates to the analysis value (i.e., AVAL or AVALC in a BDS dataset). If the source data is a supplemental qualifier in SDTM, this variable will contain the value of RDOMAIN in SUPP-- or SUPPQUAL. SRCVAR Source Variable Char Perm The name of the column (in the domain or dataset identified by SRCDOM) that relates to the analysis value (i.e., AVAL or AVALC in a BDS dataset). In the event that SRCDOM is a SUPPQUAL, then SRCVAR will be populated with the value of the related QNAM. SRCSEQ Source Sequence Number Num Perm The sequence number --SEQ or ASEQ of the row (in the domain or dataset identified by SRCDOM) that relates to the analysis value (i.e., AVAL or AVALC in a BDS dataset). In the event that SRCDOM is a SUPPQUAL, then this variable will contain the sequence number of the relevant related domain record. If the value of AVAL or AVALC in the ADaM dataset is taken from another ADaM dataset, SRCDOM, SRCVAR, and SRCSEQ will contain the name of the source ADaM dataset, the variable name, and the ASEQ value of the row where the source datapoint is located, respectively. If the source SDTM dataset is a supplemental qualifier dataset, the two-letter domain prefix of --SEQ in the ADaM dataset will be the related domain abbreviation (the value of RDOMAIN in SUPP-- or SUPPQUAL), and SRCVAR will contain the value of QNAM. SRCDOM, SRCVAR, and SRCSEQ are permissible and, if included in a dataset, do not all need to be populated on every row. For example, if the value of AVAL or AVALC is a summary of multiple rows from a single ADaM or SDTM dataset, then SRCDOM will be populated, SRCVAR will be populated if the same variable is summarized across all of the rows, and SRCSEQ will be left blank. In another example, if multiple SDTM and/or ADaM datasets are used to create AVAL or AVALC, then SRCDOM, SRCVAR, and SRCSEQ will all be left blank.",
      "excluded_reason": null,
      "expected_outputs": [],
      "extraction_status": "CANDIDATE_RULE",
      "grain": null,
      "keys": [],
      "local_relative_source_path": "ADaMIG_v1.3.pdf",
      "normalized_atomic_requirement": "Additional indicators may also be used; refer to Section 3.1.4, Flag Variable Conventions.",
      "normative_strength": "GUIDED",
      "official_url": "https://www.cdisc.org/system/files/members/standard/foundational/ADaMIG_v1.3.pdf",
      "permitted_variations": [
        "If a flag is used, the corresponding numeric version (*FN, where 1=Yes) of the flag can also be included.",
        "As described in Item 8 in Section 3.1.1 General Variable Conventions, the *FN version of the variable can be included only if the corresponding *FL is also included.",
        "Additional indicators may also be used; refer to Section 3.1.4, Flag Variable Conventions.",
        "FASPFL Full Analysis Set Parameter- Level Flag Char Y Perm PPROTPFL Per-Protocol Parameter- Level Flag Char Y Perm COMPLPFL Completers Parameter-Level Flag Char Y Perm 3.3.9 Datapoint Traceability Variables Variables to support datapoint traceability should be included whenever practical and feasible.",
        "Primary candidates for datapoint traceability, when used in conjunction with USUBJID, include the dataset or domain name, the name of the source variable, and the relevant sequence number (SDTM domain -\u2011SEQ value or the ADaM ASEQ value).",
        "Variables used for datapoint traceability may also include any other variables that facilitate transparency and clarity of derivations and analysis."
      ],
      "prohibited_behavior": [],
      "required_behavior": "Additional indicators may also be used; refer to Section 3.1.4, Flag Variable Conventions.",
      "required_inputs": [],
      "review_status": "CANDIDATE",
      "rule_id": "adamig:7d075191e1e12794",
      "rule_type": "CONTROLLED_TERMINOLOGY",
      "scope": {
        "candidate_kind": "controlled_terminology",
        "dataset_scope": [],
        "datasets": [],
        "structure_scope": [
          "BASIC_DATA_STRUCTURE"
        ],
        "variable_scope": [
          "ASEQ",
          "AVAL",
          "AVALC",
          "COMPLPFL",
          "FASPFL",
          "PPROTPFL",
          "QNAM",
          "RDOMAIN",
          "SAFPFL",
          "SEQ",
          "SRCDOM",
          "SRCSEQ",
          "SRCVAR",
          "SUPP",
          "SUPPQUAL",
          "USUBJID"
        ],
        "variables": [
          "ASEQ",
          "AVAL",
          "AVALC",
          "COMPLPFL",
          "FASPFL",
          "PPROTPFL",
          "QNAM",
          "RDOMAIN",
          "SAFPFL",
          "SEQ",
          "SRCDOM",
          "SRCSEQ",
          "SRCVAR",
          "SUPP",
          "SUPPQUAL",
          "USUBJID"
        ]
      },
      "semantic_reconstruction_status": "CANDIDATE_RECONSTRUCTED",
      "source_hash": "9b4e433592933ffb5310243cd7b38066eec02d5890507acc92e97b54e50a9b18",
      "source_section_classification": "CONTROLLED_TERMINOLOGY",
      "standard_id": "adamig",
      "standard_name": "ADaM Implementation Guide",
      "standard_version": "1.3",
      "structure_scope": [
        "BASIC_DATA_STRUCTURE"
      ],
      "validation_requirement": null,
      "validation_requirements": [],
      "variable_scope": [
        "ASEQ",
        "AVAL",
        "AVALC",
        "COMPLPFL",
        "FASPFL",
        "PPROTPFL",
        "QNAM",
        "RDOMAIN",
        "SAFPFL",
        "SEQ",
        "SRCDOM",
        "SRCSEQ",
        "SRCVAR",
        "SUPP",
        "SUPPQUAL",
        "USUBJID"
      ]
    },
    {
      "applicability_conditions": [
        "CHGCATyN cannot be present unless CHGCATy is also present.",
        "PCHGCAyN cannot be present unless PCHGCATy is also present.",
        "There must be a one-to-one relationship between SHIFTyN and SHIFTy within a parameter.SHIFTyN cannot be present unless SHIFTy is also present.",
        "BCHGCAyN cannot be present unless BCHGCATy is also present."
      ],
      "classification": "STANDARD_REQUIRED",
      "classification_status": "RESOLVED",
      "conformance_metadata": null,
      "dataset_scope": [],
      "evidence_locator": {
        "duplicate_locators": [],
        "extraction_timestamp": "2026-08-10T08:11:23+00:00",
        "page": 40,
        "parser_compiler_version": "m3r-1",
        "section": null,
        "source_binding_status": "SOURCE_BOUND",
        "source_excerpt": "CDISC Analysis Data Model Implementation Guide (1.3 Final) \u00a9 2021 Clinical Data Interchange Standards Consortium, Inc. All rights reserved Page 40 2021-11-29 Variable Name Variable Label Type Codelist/ Controlled Terms Core CDISC Notes CHGCATy Change from Baseline Category y Char Perm A categorization of CHG within a parameter. Not necessarily a one-to-one mapping to CHG. The definition of CHGCATy may vary by PARA..."
      },
      "exact_source_excerpt": "CDISC Analysis Data Model Implementation Guide (1.3 Final) \u00a9 2021 Clinical Data Interchange Standards Consortium, Inc. All rights reserved Page 40 2021-11-29 Variable Name Variable Label Type Codelist/ Controlled Terms Core CDISC Notes CHGCATy Change from Baseline Category y Char Perm A categorization of CHG within a parameter. Not necessarily a one-to-one mapping to CHG. The definition of CHGCATy may vary by PARAM. For example, CHGCAT1 may be used to categorize CHG with respect to ranges of change in SYSBP; \"-10 to -5 mm Hg\", \"-5 to 0 mm Hg\" categories. CHGCATyN Change from Baseline Category y (N) Num Perm Numeric representation of CHGCATy. Useful for ordering of values of CHGCATy or for other purposes. There must be a one-to-one relationship between CHGCATyN and CHGCATy within a parameter. CHGCATyN cannot be present unless CHGCATy is also present. When CHGCATy and CHGCATyN are present, then on a given record, either both must be populated or both must be null. PCHG Percent Change from Baseline Num Perm Percent change from baseline analysis value. Equal to ((AVAL-BASE)/BASE)*100. If used for a given PARAM, should be populated (when calculable) for all post-baseline records of that PARAM regardless of whether that record is used for analysis. The decision on how to populate pre-baseline and baseline values of PCHG is left to producer choice. PCHGCATy Percent Chg from Baseline Category y Char Perm A categorization of PCHG within a parameter. Not necessarily a one-to-one mapping to PCHG. The definition of PCHGCATy may vary by PARAM. For example, PCHGCAT1 may be used to categorize PCHG with respect to ranges of change in SYSBP; \">5%\", \">10%\" categories. PCHGCAyN Percent Chg from Baseline Category y (N) Num Perm Numeric representation of PCHGCATy. Useful for ordering of values of PCHGCATy or for other purposes. There must be a one-to-one relationship between PCHGCAyN and PCHGCATy within a parameter. PCHGCAyN cannot be present unless PCHGCATy is also present. When PCHGCATy and PCHGCAyN are present, then on a given record, either both must be populated or both must be null. R2BASE Ratio to Baseline Num Perm Ratio to the baseline value. Equal to AVAL / BASE. If used for a given PARAM, should be populated for all post-baseline records of that PARAM regardless of whether that record is used for analysis. The decision on how to populate pre-baseline and baseline values of R2BASE is left to producer choice. R2AyLO Ratio to Analysis Range y Lower Limit Num Perm Ratio to the lower limit of the analysis range y. Equal to AVAL / AyLO. AyLO must exist in the ADaM dataset. If used for a given PARAM, should be populated for all post-baseline records of that PARAM regardless of whether that record is used for analysis. The decision on how to populate pre-baseline and baseline values of R2AyLO is left to producer choice. R2AyHI Ratio to Analysis Range y Upper Limit Num Perm Ratio to the upper limit of the analysis range y. Equal to AVAL / AyHI. AyHI must exist in the ADaM dataset. If used for a given PARAM, should be populated for all post-baseline records of that PARAM regardless of whether that record is used for analysis. The decision on how to populate pre-baseline and baseline values of R2AyHI is left to producer choice. SHIFTy Shift y Char Perm A shift in values depending on the defined pairing for group y within a parameter. SHIFTy can only be based on the change in value of any of the following pairs (BASECATy, AVALCATy), (BNRIND, ANRIND), (ByIND, AyIND), (BTOXGR, ATOXGR), (BTOXGRL, ATOXGRL), (BTOXGRH, ATOXGRH), (BASE, AVAL) or (BASEC, AVALC). Useful for shift tables. For example, \"NORMAL to HIGH\". If used for a given PARAM, should be populated (when calculable) for all post-baseline records of that PARAM regardless of whether that record is used for analysis. The decision on how to populate baseline and pre-baseline values of SHIFTy is left to producer choice. SHIFTyN Shift y (N) Num Perm Numeric representation of SHIFTy. There must be a one-to-one relationship between SHIFTyN and SHIFTy within a parameter.SHIFTyN cannot be present unless SHIFTy is also present. When SHIFTy and SHIFTyN are present, then on a given record, either both must be populated or both must be null.If SHIFTyN is used for a given PARAM, SHIFTy and SHIFTyN should be populated (when calculable) for all post-baseline records of that PARAM regardless of whether that record is used for analysis. BCHG Change to Baseline Num Perm Change to baseline analysis value. Equal to BASE-AVAL. If used for a given PARAM, should be populated for all post-baseline records of that PARAM regardless of whether that record is used for analysis. The decision on how to populate pre-baseline and baseline values of BCHG is left to producer choice. BCHGCATy Change to Baseline Category y Char Perm A categorization of BCHG within a parameter. Not necessarily a one-to-one mapping to BCHG. The definition of BCHGCATy may vary by PARAM. For example, BCHGCAT1 may be used to categorize BCHG with respect to ranges of change in SYSBP; \"-10 to -5 mm Hg\", \"-5 to 0 mm Hg\" categories. BCHGCAyN Change to Baseline Category y (N) Num Perm Numeric representation of BCHGCATy. Useful for ordering of values of BCHGCATy or for other purposes. There must be a one-to-one relationship between BCHGCAyN and BCHGCATy within a parameter. BCHGCAyN cannot be present unless BCHGCATy is also present. When BCHGCATy and BCHGCAyN are present, then on a given record, either both must be populated or both must be null.",
      "excluded_reason": null,
      "expected_outputs": [],
      "extraction_status": "CANDIDATE_RULE",
      "grain": null,
      "keys": [],
      "local_relative_source_path": "ADaMIG_v1.3.pdf",
      "normalized_atomic_requirement": "The definition of CHGCATy may vary by PARAM.",
      "normative_strength": "REQUIRED",
      "official_url": "https://www.cdisc.org/system/files/members/standard/foundational/ADaMIG_v1.3.pdf",
      "permitted_variations": [
        "The definition of CHGCATy may vary by PARAM.",
        "For example, CHGCAT1 may be used to categorize CHG with respect to ranges of change in SYSBP; \"-10 to -5 mm Hg\", \"-5 to 0 mm Hg\" categories.",
        "CHGCATyN cannot be present unless CHGCATy is also present.",
        "If used for a given PARAM, should be populated (when calculable) for all post-baseline records of that PARAM regardless of whether that record is used for analysis.",
        "The definition of PCHGCATy may vary by PARAM.",
        "For example, PCHGCAT1 may be used to categorize PCHG with respect to ranges of change in SYSBP; \">5%\", \">10%\" categories.",
        "PCHGCAyN cannot be present unless PCHGCATy is also present.",
        "If used for a given PARAM, should be populated for all post-baseline records of that PARAM regardless of whether that record is used for analysis.",
        "SHIFTy can only be based on the change in value of any of the following pairs (BASECATy, AVALCATy), (BNRIND, ANRIND), (ByIND, AyIND), (BTOXGR, ATOXGR), (BTOXGRL, ATOXGRL), (BTOXGRH, ATOXGRH), (BASE, AVAL) or (BASEC, AVALC).",
        "There must be a one-to-one relationship between SHIFTyN and SHIFTy within a parameter.SHIFTyN cannot be present unless SHIFTy is also present.",
        "When SHIFTy and SHIFTyN are present, then on a given record, either both must be populated or both must be null.If SHIFTyN is used for a given PARAM, SHIFTy and SHIFTyN should be populated (when calculable) for all post-baseline records of that PARAM regardless of whether that record is used for analysis.",
        "The definition of BCHGCATy may vary by PARAM.",
        "For example, BCHGCAT1 may be used to categorize BCHG with respect to ranges of change in SYSBP; \"-10 to -5 mm Hg\", \"-5 to 0 mm Hg\" categories.",
        "BCHGCAyN cannot be present unless BCHGCATy is also present."
      ],
      "prohibited_behavior": [],
      "required_behavior": "The definition of CHGCATy may vary by PARAM.",
      "required_inputs": [],
      "review_status": "CANDIDATE",
      "rule_id": "adamig:7dc8e1af59eaac40",
      "rule_type": "CONTROLLED_TERMINOLOGY",
      "scope": {
        "candidate_kind": "controlled_terminology",
        "dataset_scope": [],
        "datasets": [],
        "structure_scope": [],
        "variable_scope": [
          "ANRIND",
          "ATOXGR",
          "ATOXGRH",
          "ATOXGRL",
          "AVAL",
          "AVALC",
          "BASE",
          "BASEC",
          "BCHG",
          "BCHGCAT1",
          "BNRIND",
          "BTOXGR",
          "BTOXGRH",
          "BTOXGRL",
          "CHG",
          "CHGCAT1",
          "HIGH",
          "NORMAL",
          "PARAM",
          "PCHG",
          "PCHGCAT1",
          "R2BASE",
          "SYSBP"
        ],
        "variables": [
          "ANRIND",
          "ATOXGR",
          "ATOXGRH",
          "ATOXGRL",
          "AVAL",
          "AVALC",
          "BASE",
          "BASEC",
          "BCHG",
          "BCHGCAT1",
          "BNRIND",
          "BTOXGR",
          "BTOXGRH",
          "BTOXGRL",
          "CHG",
          "CHGCAT1",
          "HIGH",
          "NORMAL",
          "PARAM",
          "PCHG",
          "PCHGCAT1",
          "R2BASE",
          "SYSBP"
        ]
      },
