{
  "rules": [
    {
      "applicability_conditions": [],
      "classification": "STANDARD_GUIDED",
      "classification_status": "RESOLVED",
      "conformance_metadata": null,
      "dataset_scope": [],
      "evidence_locator": {
        "duplicate_locators": [],
        "extraction_timestamp": "2026-08-10T08:11:23+00:00",
        "parser_compiler_version": "m3r-1",
        "row": 157,
        "sheet": "ADaM Terminology 2026-03-27",
        "source_binding_status": "SOURCE_BOUND",
        "source_excerpt": "Code: C175552 | Codelist Code: C204414 | Codelist Name: Tobacco Product Category Response | CDISC Submission Value: HEATED TOBACCO PRODUCTS | CDISC Synonym(s): Heat Not Burn; HTP; Tobacco Heating System | CDISC Definition: Any tobacco product or associated parts and components that, because of its appearance, type, packaging, labeling, or associated parts and components, heats tobacco filler and can be used with e...",
        "workbook_identity_markers": [
          "The controlled terminology in this spreadsheet supports Analysis Data Model Implementation Guide Version 1.0 (ADaMIG v1.0), Version 1.1 (ADaMIG v1.1), Version 1.2 (ADaMIG v1.2), and Version 1.3 (ADaMIG v1.3). Additional terminology will be developed on an ongoing basis to support this standard. Future additions to the terminology set will be handled via the terminology change request and maintenance process.",
          "Defines if controlled terms may be added to the codelist. New terms may be added to existing codelist values when the codelist has \"Yes\" in Column C as long as the terms are not duplicates or synonyms of existing terms. The expectation is that sponsors will use the published controlled terminology as a standard baseline and codelists defined as \u201cextensible\u201d (or \"Yes\") may have terms added by the sponsor internally.  For codelists with \"No\" in Column C sponsor organizations may not add to the published lists. Suggestions for new terms may be requested through the New Term Request Page.",
          "A parameter code codelist for the Acute Physiology and Chronic Health Evaluation II Clinical Classification (APACHE II) to support the calculation of total score in ADaM.",
          "CDISC ADaM Acute Physiology and Chronic Health Evaluation II Clinical Classification Parameter Code Terminology",
          "A parameter name codelist for the Acute Physiology and Chronic Health Evaluation II Clinical Classification (APACHE II) to support the calculation of total score in ADaM.",
          "CDISC ADaM Acute Physiology and Chronic Health Evaluation II Clinical Classification Parameter Name Terminology",
          "A terminology codelist containing the stratum values for analysis.",
          "CDISC ADaM Analysis Stratum Terminology",
          "A parameter code codelist for the Craig Handicap Assessment and Reporting Technique-Short Form Questionnaires (CHART-SF) to support the calculation of subscores and total score for the Interview and Paper Versions in ADaM.",
          "CDISC ADaM Craig Handicap Assessment and Reporting Technique-Short Form Questionnaires Parameter Code Terminology"
        ]
      },
      "exact_source_excerpt": "Code: C175552 | Codelist Code: C204414 | Codelist Name: Tobacco Product Category Response | CDISC Submission Value: HEATED TOBACCO PRODUCTS | CDISC Synonym(s): Heat Not Burn; HTP; Tobacco Heating System | CDISC Definition: Any tobacco product or associated parts and components that, because of its appearance, type, packaging, labeling, or associated parts and components, heats tobacco filler and can be used with e-liquids and/or other consumables. This includes products that meet the definition of a cigarette and are not burned like a cigarette. | NCI Preferred Term: Heated Tobacco Product",
      "excluded_reason": null,
      "expected_outputs": [],
      "extraction_status": "CANDIDATE_RULE",
      "grain": null,
      "keys": [],
      "local_relative_source_path": "ADaM Terminology_07112026.xls",
      "normalized_atomic_requirement": "Code: C175552 | Codelist Code: C204414 | Codelist Name: Tobacco Product Category Response | CDISC Submission Value: HEATED TOBACCO PRODUCTS | CDISC Synonym(s): Heat Not Burn; HTP; Tobacco Heating System | CDISC Definition: Any tobacco product or associated parts and components that, because of its appearance, type, packaging, labeling, or associated parts...",
      "normative_strength": "GUIDED",
      "official_url": "https://evs.nci.nih.gov/ftp1/CDISC/ADaM/ADaM%20Terminology.xls",
      "permitted_variations": [
        "Code: C175552 | Codelist Code: C204414 | Codelist Name: Tobacco Product Category Response | CDISC Submission Value: HEATED TOBACCO PRODUCTS | CDISC Synonym(s): Heat Not Burn; HTP; Tobacco Heating System | CDISC Definition: Any tobacco product or associated parts and components that, because of its appearance, type, packaging, labeling, or associated parts and components, heats tobacco filler and can be used with e..."
      ],
      "prohibited_behavior": [],
      "required_behavior": "Code: C175552 | Codelist Code: C204414 | Codelist Name: Tobacco Product Category Response | CDISC Submission Value: HEATED TOBACCO PRODUCTS | CDISC Synonym(s): Heat Not Burn; HTP; Tobacco Heating System | CDISC Definition: Any tobacco product or associated parts and components that, because of its appearance, type, packaging, labeling, or associated parts...",
      "required_inputs": [],
      "review_status": "CANDIDATE",
      "rule_id": "adam-ct:248efc515daaca45",
      "rule_type": "CONTROLLED_TERMINOLOGY",
      "scope": {
        "candidate_kind": "controlled_terminology",
        "dataset_scope": [],
        "datasets": [],
        "structure_scope": [],
        "variable_scope": [
          "C175552",
          "C204414",
          "HEATED",
          "HTP",
          "NCI",
          "PRODUCTS",
          "TOBACCO"
        ],
        "variables": [
          "C175552",
          "C204414",
          "HEATED",
          "HTP",
          "NCI",
          "PRODUCTS",
          "TOBACCO"
        ]
      },
      "semantic_reconstruction_status": "CANDIDATE_RECONSTRUCTED",
      "source_hash": "2c936902297c4d9992f139ea7adb0ed4d889400518f427c46eed584854643586",
      "source_section_classification": "CONTROLLED_TERMINOLOGY",
      "standard_id": "adam-ct",
      "standard_name": "ADaM Controlled Terminology",
      "standard_version": null,
      "structure_scope": [],
      "validation_requirement": null,
      "validation_requirements": [],
      "variable_scope": [
        "C175552",
        "C204414",
        "HEATED",
        "HTP",
        "NCI",
        "PRODUCTS",
        "TOBACCO"
      ]
    },
    {
      "applicability_conditions": [],
      "classification": "STANDARD_GUIDED",
      "classification_status": "RESOLVED",
      "conformance_metadata": null,
      "dataset_scope": [],
      "evidence_locator": {
        "duplicate_locators": [],
        "extraction_timestamp": "2026-08-10T08:11:23+00:00",
        "parser_compiler_version": "m3r-1",
        "row": 17,
        "sheet": "ADaM Terminology 2026-03-27",
        "source_binding_status": "SOURCE_BOUND",
        "source_excerpt": "Code: C210055 | Codelist Code: C204411 | Codelist Name: Analysis Stratum | CDISC Submission Value: YEAR | CDISC Definition: A year period of time, which may be historical or projected, that is used for the purpose of defining a projection period. | NCI Preferred Term: Year Projection Period",
        "workbook_identity_markers": [
          "The controlled terminology in this spreadsheet supports Analysis Data Model Implementation Guide Version 1.0 (ADaMIG v1.0), Version 1.1 (ADaMIG v1.1), Version 1.2 (ADaMIG v1.2), and Version 1.3 (ADaMIG v1.3). Additional terminology will be developed on an ongoing basis to support this standard. Future additions to the terminology set will be handled via the terminology change request and maintenance process.",
          "Defines if controlled terms may be added to the codelist. New terms may be added to existing codelist values when the codelist has \"Yes\" in Column C as long as the terms are not duplicates or synonyms of existing terms. The expectation is that sponsors will use the published controlled terminology as a standard baseline and codelists defined as \u201cextensible\u201d (or \"Yes\") may have terms added by the sponsor internally.  For codelists with \"No\" in Column C sponsor organizations may not add to the published lists. Suggestions for new terms may be requested through the New Term Request Page.",
          "A parameter code codelist for the Acute Physiology and Chronic Health Evaluation II Clinical Classification (APACHE II) to support the calculation of total score in ADaM.",
          "CDISC ADaM Acute Physiology and Chronic Health Evaluation II Clinical Classification Parameter Code Terminology",
          "A parameter name codelist for the Acute Physiology and Chronic Health Evaluation II Clinical Classification (APACHE II) to support the calculation of total score in ADaM.",
          "CDISC ADaM Acute Physiology and Chronic Health Evaluation II Clinical Classification Parameter Name Terminology",
          "A terminology codelist containing the stratum values for analysis.",
          "CDISC ADaM Analysis Stratum Terminology",
          "A parameter code codelist for the Craig Handicap Assessment and Reporting Technique-Short Form Questionnaires (CHART-SF) to support the calculation of subscores and total score for the Interview and Paper Versions in ADaM.",
          "CDISC ADaM Craig Handicap Assessment and Reporting Technique-Short Form Questionnaires Parameter Code Terminology"
        ]
      },
      "exact_source_excerpt": "Code: C210055 | Codelist Code: C204411 | Codelist Name: Analysis Stratum | CDISC Submission Value: YEAR | CDISC Definition: A year period of time, which may be historical or projected, that is used for the purpose of defining a projection period. | NCI Preferred Term: Year Projection Period",
      "excluded_reason": null,
      "expected_outputs": [],
      "extraction_status": "CANDIDATE_RULE",
      "grain": null,
      "keys": [],
      "local_relative_source_path": "ADaM Terminology_07112026.xls",
      "normalized_atomic_requirement": "Code: C210055 | Codelist Code: C204411 | Codelist Name: Analysis Stratum | CDISC Submission Value: YEAR | CDISC Definition: A year period of time, which may be historical or projected, that is used for the purpose of defining a projection period.",
      "normative_strength": "GUIDED",
      "official_url": "https://evs.nci.nih.gov/ftp1/CDISC/ADaM/ADaM%20Terminology.xls",
      "permitted_variations": [
        "Code: C210055 | Codelist Code: C204411 | Codelist Name: Analysis Stratum | CDISC Submission Value: YEAR | CDISC Definition: A year period of time, which may be historical or projected, that is used for the purpose of defining a projection period."
      ],
      "prohibited_behavior": [],
      "required_behavior": "Code: C210055 | Codelist Code: C204411 | Codelist Name: Analysis Stratum | CDISC Submission Value: YEAR | CDISC Definition: A year period of time, which may be historical or projected, that is used for the purpose of defining a projection period.",
      "required_inputs": [],
      "review_status": "CANDIDATE",
      "rule_id": "adam-ct:6bf9adb2e300332d",
      "rule_type": "CONTROLLED_TERMINOLOGY",
      "scope": {
        "candidate_kind": "controlled_terminology",
        "dataset_scope": [],
        "datasets": [],
        "structure_scope": [],
        "variable_scope": [
          "C204411",
          "C210055",
          "NCI",
          "YEAR"
        ],
        "variables": [
          "C204411",
          "C210055",
          "NCI",
          "YEAR"
        ]
      },
      "semantic_reconstruction_status": "CANDIDATE_RECONSTRUCTED",
      "source_hash": "2c936902297c4d9992f139ea7adb0ed4d889400518f427c46eed584854643586",
      "source_section_classification": "CONTROLLED_TERMINOLOGY",
      "standard_id": "adam-ct",
      "standard_name": "ADaM Controlled Terminology",
      "standard_version": null,
      "structure_scope": [],
      "validation_requirement": null,
      "validation_requirements": [],
      "variable_scope": [
        "C204411",
        "C210055",
        "NCI",
        "YEAR"
      ]
    },
    {
      "applicability_conditions": [],
      "classification": "STANDARD_GUIDED",
      "classification_status": "RESOLVED",
      "conformance_metadata": null,
      "dataset_scope": [],
      "evidence_locator": {
        "duplicate_locators": [],
        "extraction_timestamp": "2026-08-10T08:11:23+00:00",
        "parser_compiler_version": "m3r-1",
        "row": 160,
        "sheet": "ADaM Terminology 2026-03-27",
        "source_binding_status": "SOURCE_BOUND",
        "source_excerpt": "Code: C214743 | Codelist Code: C204414 | Codelist Name: Tobacco Product Category Response | CDISC Submission Value: SMOKELESS TOBACCO PRODUCTS | CDISC Definition: Any tobacco product that is intended to be placed in the oral or nasal cavity. It may consist of cut, ground, powdered, or leaf tobacco. | NCI Preferred Term: Smokeless Tobacco Product",
        "workbook_identity_markers": [
          "The controlled terminology in this spreadsheet supports Analysis Data Model Implementation Guide Version 1.0 (ADaMIG v1.0), Version 1.1 (ADaMIG v1.1), Version 1.2 (ADaMIG v1.2), and Version 1.3 (ADaMIG v1.3). Additional terminology will be developed on an ongoing basis to support this standard. Future additions to the terminology set will be handled via the terminology change request and maintenance process.",
          "Defines if controlled terms may be added to the codelist. New terms may be added to existing codelist values when the codelist has \"Yes\" in Column C as long as the terms are not duplicates or synonyms of existing terms. The expectation is that sponsors will use the published controlled terminology as a standard baseline and codelists defined as \u201cextensible\u201d (or \"Yes\") may have terms added by the sponsor internally.  For codelists with \"No\" in Column C sponsor organizations may not add to the published lists. Suggestions for new terms may be requested through the New Term Request Page.",
          "A parameter code codelist for the Acute Physiology and Chronic Health Evaluation II Clinical Classification (APACHE II) to support the calculation of total score in ADaM.",
          "CDISC ADaM Acute Physiology and Chronic Health Evaluation II Clinical Classification Parameter Code Terminology",
          "A parameter name codelist for the Acute Physiology and Chronic Health Evaluation II Clinical Classification (APACHE II) to support the calculation of total score in ADaM.",
          "CDISC ADaM Acute Physiology and Chronic Health Evaluation II Clinical Classification Parameter Name Terminology",
          "A terminology codelist containing the stratum values for analysis.",
          "CDISC ADaM Analysis Stratum Terminology",
          "A parameter code codelist for the Craig Handicap Assessment and Reporting Technique-Short Form Questionnaires (CHART-SF) to support the calculation of subscores and total score for the Interview and Paper Versions in ADaM.",
          "CDISC ADaM Craig Handicap Assessment and Reporting Technique-Short Form Questionnaires Parameter Code Terminology"
        ]
      },
      "exact_source_excerpt": "Code: C214743 | Codelist Code: C204414 | Codelist Name: Tobacco Product Category Response | CDISC Submission Value: SMOKELESS TOBACCO PRODUCTS | CDISC Definition: Any tobacco product that is intended to be placed in the oral or nasal cavity. It may consist of cut, ground, powdered, or leaf tobacco. | NCI Preferred Term: Smokeless Tobacco Product",
      "excluded_reason": null,
      "expected_outputs": [],
      "extraction_status": "CANDIDATE_RULE",
      "grain": null,
      "keys": [],
      "local_relative_source_path": "ADaM Terminology_07112026.xls",
      "normalized_atomic_requirement": "It may consist of cut, ground, powdered, or leaf tobacco.",
      "normative_strength": "GUIDED",
      "official_url": "https://evs.nci.nih.gov/ftp1/CDISC/ADaM/ADaM%20Terminology.xls",
      "permitted_variations": [
        "It may consist of cut, ground, powdered, or leaf tobacco."
      ],
      "prohibited_behavior": [],
      "required_behavior": "It may consist of cut, ground, powdered, or leaf tobacco.",
      "required_inputs": [],
      "review_status": "CANDIDATE",
      "rule_id": "adam-ct:bf7f38bd19dc236c",
      "rule_type": "CONTROLLED_TERMINOLOGY",
      "scope": {
        "candidate_kind": "controlled_terminology",
        "dataset_scope": [],
        "datasets": [],
        "structure_scope": [],
        "variable_scope": [
          "C204414",
          "C214743",
          "NCI",
          "PRODUCTS",
          "SMOKELESS",
          "TOBACCO"
        ],
        "variables": [
          "C204414",
          "C214743",
          "NCI",
          "PRODUCTS",
          "SMOKELESS",
          "TOBACCO"
        ]
      },
      "semantic_reconstruction_status": "CANDIDATE_RECONSTRUCTED",
      "source_hash": "2c936902297c4d9992f139ea7adb0ed4d889400518f427c46eed584854643586",
      "source_section_classification": "CONTROLLED_TERMINOLOGY",
      "standard_id": "adam-ct",
      "standard_name": "ADaM Controlled Terminology",
      "standard_version": null,
      "structure_scope": [],
      "validation_requirement": null,
      "validation_requirements": [],
      "variable_scope": [
        "C204414",
        "C214743",
        "NCI",
        "PRODUCTS",
        "SMOKELESS",
        "TOBACCO"
      ]
    }
  ]
}