{
  "rules": [
    {
      "applicability_conditions": [],
      "classification": "NON_NORMATIVE",
      "classification_status": "RESOLVED",
      "conformance_metadata": null,
      "dataset_scope": [],
      "evidence_locator": {
        "duplicate_locators": [],
        "extraction_timestamp": "2026-08-10T08:11:23+00:00",
        "page": 459,
        "parser_compiler_version": "m3r-1",
        "section": null,
        "source_binding_status": "SOURCE_BOUND",
        "source_excerpt": "Section Number Section Name Change Appendix A CDISC SDS Team The team list has been updated. Appendix C Controlled Terminology \u2022 Appendix C1 Trial Summary Codes has been removed from SDTMIG v3.4. TS Assumptions were updated to reference CDISC controlled terminology, CDISC TS codetable, and recipient (regulatory agency) implementation expectations. \u2022 Removed --CLSIG due to promotion as a Findings variable \u2022 Added -..."
      },
      "exact_source_excerpt": "Section Number Section Name Change Appendix A CDISC SDS Team The team list has been updated. Appendix C Controlled Terminology \u2022 Appendix C1 Trial Summary Codes has been removed from SDTMIG v3.4. TS Assumptions were updated to reference CDISC controlled terminology, CDISC TS codetable, and recipient (regulatory agency) implementation expectations. \u2022 Removed --CLSIG due to promotion as a Findings variable \u2022 Added --REASOC \u2022 All references to Appendix C2 in the SDTMIG were changed to Appendix C1",
      "excluded_reason": null,
      "expected_outputs": [],
      "extraction_status": "CANDIDATE_RULE",
      "grain": null,
      "keys": [],
      "local_relative_source_path": "SDTMIG v3.4.pdf",
      "normalized_atomic_requirement": "Section Number Section Name Change Appendix A CDISC SDS Team The team list has been updated. Appendix C Controlled Terminology \u2022 Appendix C1 Trial Summary Codes has been removed from SDTMIG v3.4. TS Assumptions were updated to reference CDISC controlled terminology, CDISC TS codetable, and recipient (regulatory agency) implementation expectations. \u2022 Remov...",
      "normative_strength": "NON_NORMATIVE",
      "official_url": "https://www.cdisc.org/standards/foundational/sdtmig/sdtmig-v3-4",
      "permitted_variations": [],
      "prohibited_behavior": [],
      "required_behavior": null,
      "required_inputs": [],
      "review_status": "CANDIDATE",
      "rule_id": "sdtmig:008a8c0b263b54a1",
      "rule_type": "CONTROLLED_TERMINOLOGY",
      "scope": {
        "candidate_kind": "controlled_terminology",
        "dataset_scope": [],
        "datasets": [],
        "structure_scope": [],
        "variable_scope": [
          "CLSIG",
          "REASOC",
          "SDS",
          "SDTMIG"
        ],
        "variables": [
          "CLSIG",
          "REASOC",
          "SDS",
          "SDTMIG"
        ]
      },
      "semantic_reconstruction_status": "CANDIDATE_RECONSTRUCTED",
      "source_hash": "ea4ddbba4a3e10a55bb2f36d5e28d9cfc191090717c2426475279750a7f57021",
      "source_section_classification": "CONTROLLED_TERMINOLOGY",
      "standard_id": "sdtmig",
      "standard_name": "SDTM Implementation Guide",
      "standard_version": "3.4",
      "structure_scope": [],
      "validation_requirement": null,
      "validation_requirements": [],
      "variable_scope": [
        "CLSIG",
        "REASOC",
        "SDS",
        "SDTMIG"
      ]
    },
    {
      "applicability_conditions": [
        "All rights reserved Page 79 2021-11-29 Row 1: Sponsor allowed for an \"Other\" option to be collected, where its specify details are in SUPPDM.",
        "Row 2: Sponsor allowed for an \"Unknown\" option to be collected, where its reason is collected in SUPPDM.",
        "The SE dataset contains the date/times at which a subject moved from one element to another, so when this dataset, the Trial Arms (TA; see Section 7.2.1, Trial Arms) dataset, and the Trial Elements (TE; see Section 7.2.2, Trial Elements) dataset are included in a submission, reviewers can relate all observations made abou t a subject to that subject\u2019s progression through the trial."
      ],
      "classification": "NON_NORMATIVE",
      "classification_status": "RESOLVED",
      "conformance_metadata": null,
      "dataset_scope": [],
      "evidence_locator": {
        "duplicate_locators": [],
        "extraction_timestamp": "2026-08-10T08:11:23+00:00",
        "page": 79,
        "parser_compiler_version": "m3r-1",
        "section": null,
        "source_binding_status": "SOURCE_BOUND",
        "source_excerpt": "CDISC Study Data Tabulation Model Implementation Guide: Human Clinical Trials (3.4 Final) \u00a9 2021 Clinical Data Interchange Standards Consortium, Inc. All rights reserved Page 79 2021-11-29 Row 1: Sponsor allowed for an \"Other\" option to be collected, where its specify details are in SUPPDM. Row 2: Sponsor allowed for an \"Unknown\" option to be collected, where its reason is collected in SUPPDM. Note: Recommended QN..."
      },
      "exact_source_excerpt": "CDISC Study Data Tabulation Model Implementation Guide: Human Clinical Trials (3.4 Final) \u00a9 2021 Clinical Data Interchange Standards Consortium, Inc. All rights reserved Page 79 2021-11-29 Row 1: Sponsor allowed for an \"Other\" option to be collected, where its specify details are in SUPPDM. Row 2: Sponsor allowed for an \"Unknown\" option to be collected, where its reason is collected in SUPPDM. Note: Recommended QNAM-QLABEL values have been provided. suppdm.xpt Row STUDYID RDOMAIN USUBJID IDVAR IDVARVAL QNAM QLABEL QVAL QORIG QEVAL 1 ABC789 DM ABC789-010-047 RACEOTH Race, Other BRAZILIAN CRF 2 ABC789 DM ABC789-010-048 RACEREAS Race, Reason Details REFUGEE - DO NOT KNOW MY RACE CRF 5.3 Subject Elements (SE) SE \u2013 Description/Overview A special-purpose domain that contains the actual order of elements followed by the subject, together with the start date/time and end date/time for each element. The Subject Elements dataset consolidates information about the timing of each subject\u2019s progress through the epochs and elements of the trial. For elements that involve study treatments, the identification of which element the subject passed through (e.g., drug X vs. placebo) is likely to derive from data in the Exposure domain or another Interventions domain. The dates of a subject\u2019s transition from one element to the next will be taken from t he Interventions domain(s) and from other relevant domains, according to the definitions (TESTRL values) in the Trial Elements (TE) dataset (see Section 7.2.2, Trial Elements). The SE dataset is particularly useful for studies with multiple treatment periods, such as crossover studies. The SE dataset contains the date/times at which a subject moved from one element to another, so when this dataset, the Trial Arms (TA; see Section 7.2.1, Trial Arms) dataset, and the Trial Elements (TE; see Section 7.2.2, Trial Elements) dataset are included in a submission, reviewers can relate all observations made abou t a subject to that subject\u2019s progression through the trial. \u2022 Comparison of the --DTC of a finding observation to the element transition dates (values of SESTDTC and SEENDTC) identifies which element the subject was in at the time of the finding. Similarly, one can determine the element during which an event or intervention started or ended. \u2022 \u201cDay within Element\u201d or \u201cDay within Epoch\u201d can be derived. Such variables relate an observation to the start of an element or epoch in the same way that study day (--DY) variables relate it to the reference start date (RFSTDTC) for the study as a whole. See Section 4.4.4, Use of the \"Study Day\" Variables. \u2022 Having knowledge of SE start and end dates can be helpful in the determination of baseline values. SE \u2013 Specification se.xpt, Subject Elements \u2014 Special Purpose. One record per actual Element per subject, Tabulation. Variable Name Variable Label Type Controlled Terms, Codelist or Format1 Role CDISC Notes Core STUDYID Study Identifier Char Identifier Unique identifier for a study. Req DOMAIN Domain Abbreviation Char SE Identifier Two-character abbreviation for the domain. Req USUBJID Unique Subject Identifier Char Identifier Identifier used to uniquely identify a subject across all studies for all applications or submissions involving the product. Req SESEQ Sequence Number Num Identifier Sequence number given to ensure uniqueness of subject records within a domain. Should be assigned to be consistent chronological order. Req",
      "excluded_reason": null,
      "expected_outputs": [],
      "extraction_status": "CANDIDATE_RULE",
      "grain": "One record per actual Element per subject, Tabulation",
      "keys": [],
      "local_relative_source_path": "SDTMIG v3.4.pdf",
      "normalized_atomic_requirement": "One record per actual Element per subject, Tabulation.",
      "normative_strength": "NON_NORMATIVE",
      "official_url": "https://www.cdisc.org/standards/foundational/sdtmig/sdtmig-v3-4",
      "permitted_variations": [
        "The SE dataset contains the date/times at which a subject moved from one element to another, so when this dataset, the Trial Arms (TA; see Section 7.2.1, Trial Arms) dataset, and the Trial Elements (TE; see Section 7.2.2, Trial Elements) dataset are included in a submission, reviewers can relate all observations made abou t a subject to that subject\u2019s progression through the trial.",
        "Similarly, one can determine the element during which an event or intervention started or ended.",
        "\u2022 \u201cDay within Element\u201d or \u201cDay within Epoch\u201d can be derived.",
        "\u2022 Having knowledge of SE start and end dates can be helpful in the determination of baseline values.",
        "Should be assigned to be consistent chronological order."
      ],
      "prohibited_behavior": [],
      "required_behavior": null,
      "required_inputs": [],
      "review_status": "CANDIDATE",
      "rule_id": "sdtmig:008aeed59487525b",
      "rule_type": "CONTROLLED_TERMINOLOGY",
      "scope": {
        "candidate_kind": "controlled_terminology",
        "dataset_scope": [],
        "datasets": [],
        "structure_scope": [],
        "variable_scope": [
          "ABC789",
          "BRAZILIAN",
          "CRF",
          "DOMAIN",
          "DTC",
          "IDVAR",
          "IDVARVAL",
          "KNOW",
          "NOT",
          "QEVAL",
          "QLABEL",
          "QNAM",
          "QORIG",
          "QVAL",
          "RACE",
          "RACEOTH",
          "RACEREAS",
          "RDOMAIN",
          "REFUGEE",
          "RFSTDTC",
          "SEENDTC",
          "SESEQ",
          "SESTDTC",
          "STUDYID",
          "SUPPDM",
          "TESTRL",
          "USUBJID"
        ],
        "variables": [
          "ABC789",
          "BRAZILIAN",
          "CRF",
          "DOMAIN",
          "DTC",
          "IDVAR",
          "IDVARVAL",
          "KNOW",
          "NOT",
          "QEVAL",
          "QLABEL",
          "QNAM",
          "QORIG",
          "QVAL",
          "RACE",
          "RACEOTH",
          "RACEREAS",
          "RDOMAIN",
          "REFUGEE",
          "RFSTDTC",
          "SEENDTC",
          "SESEQ",
          "SESTDTC",
          "STUDYID",
          "SUPPDM",
          "TESTRL",
          "USUBJID"
        ]
      },
      "semantic_reconstruction_status": "CANDIDATE_RECONSTRUCTED",
      "source_hash": "ea4ddbba4a3e10a55bb2f36d5e28d9cfc191090717c2426475279750a7f57021",
      "source_section_classification": "CONTROLLED_TERMINOLOGY",
      "standard_id": "sdtmig",
      "standard_name": "SDTM Implementation Guide",
      "standard_version": "3.4",
      "structure_scope": [],
      "validation_requirement": null,
      "validation_requirements": [],
      "variable_scope": [
        "ABC789",
        "BRAZILIAN",
        "CRF",
        "DOMAIN",
        "DTC",
        "IDVAR",
        "IDVARVAL",
        "KNOW",
        "NOT",
        "QEVAL",
        "QLABEL",
        "QNAM",
        "QORIG",
        "QVAL",
        "RACE",
        "RACEOTH",
        "RACEREAS",
        "RDOMAIN",
        "REFUGEE",
        "RFSTDTC",
        "SEENDTC",
        "SESEQ",
        "SESTDTC",
        "STUDYID",
        "SUPPDM",
        "TESTRL",
        "USUBJID"
      ]
    },
    {
      "applicability_conditions": [
        "All rights reserved Page 47 2021-11-29 If the protocol describes the scheduling of a dose using a reference intervention or assessment, then --TPTREF should be populated, even if it does not contribute to uniqueness.",
        "For instance, --TPTNUM values could be used to distinguish first, second, and third repeats of a measurement schedule d without any relationship to dosing (\u2013TPTREF and --ELTM would not be included.) In this case, where the protocol calls for repeated measurements but does not specify timing of the measurements, the --REPNUM variable could be used instead of time-point variables.",
        "For trials with many time points, the requirement to provide uniqueness using only VISITNUM, --TPTREF, and -- TPTNUM may lead to a scheme where multiple natural keys are combined into the values of one of these variables."
      ],
      "classification": "NON_NORMATIVE",
      "classification_status": "RESOLVED",
      "conformance_metadata": null,
      "dataset_scope": [],
      "evidence_locator": {
        "duplicate_locators": [],
        "extraction_timestamp": "2026-08-10T08:11:23+00:00",
        "page": 47,
        "parser_compiler_version": "m3r-1",
        "section": null,
        "source_binding_status": "SOURCE_BOUND",
        "source_excerpt": "CDISC Study Data Tabulation Model Implementation Guide: Human Clinical Trials (3.4 Final) \u00a9 2021 Clinical Data Interchange Standards Consortium, Inc. All rights reserved Page 47 2021-11-29 If the protocol describes the scheduling of a dose using a reference intervention or assessment, then --TPTREF should be populated, even if it does not contribute to uniqueness. The fact that time points are related to a referen..."
      },
      "exact_source_excerpt": "CDISC Study Data Tabulation Model Implementation Guide: Human Clinical Trials (3.4 Final) \u00a9 2021 Clinical Data Interchange Standards Consortium, Inc. All rights reserved Page 47 2021-11-29 If the protocol describes the scheduling of a dose using a reference intervention or assessment, then --TPTREF should be populated, even if it does not contribute to uniqueness. The fact that time points are related to a reference time point, and what that reference time point is, are important for interpreting the data collected at the time point. Not all time points will require all 3 variables to provide uniqueness. In fact, in some cases a time point may be uniquely identified without the use of VISIT, or without the use of --TPTREF, or without the use of either. For instance: \u2022 A trial might have time points only within 1 visit, so that the contribution of VISITNUM to uniqueness is trivial. (VISITNUM would be populated, but would not contribute to uniqueness.) \u2022 A trial might have time points that do not relate to any visit, such as time points relative to a dose of drug self-administered by the subject at home. (Visit variables would not be included, but --TPTREF and other time point variables would be populated.) \u2022 A trial may have only 1 reference time point per visit, and all reference time points may be similar, so that only 1 value of --TPTREF (e.g., \"DOSE\") is needed. (--TPTREF would be populated, but would not contribute to uniqueness.) \u2022 A trial may have time points not related to a reference time point. For instance, --TPTNUM values could be used to distinguish first, second, and third repeats of a measurement schedule d without any relationship to dosing (\u2013TPTREF and --ELTM would not be included.) In this case, where the protocol calls for repeated measurements but does not specify timing of the measurements, the --REPNUM variable could be used instead of time-point variables. For trials with many time points, the requirement to provide uniqueness using only VISITNUM, --TPTREF, and -- TPTNUM may lead to a scheme where multiple natural keys are combined into the values of one of these variables. For instance, in a crossover trial with multiple doses on multiple days within each period, either of the following options could be used. 1. VISITNUM might be used to designate period, --TPTREF might be used to designate the day and the dose, and --TPTNUM might be used to designate the timing relative to the reference time point. 2. VISITNUM might be used to designate period and day within period, --TPTREF might be used to designate the dose within the day, and --TPTNUM might be used to designate the timing relative to the reference time point. Option 1 VISIT VISITNUM --TPT --TPTNUM --TPTREF PERIOD 1 3 PRE-DOSE 1 DAY 1, AM DOSE 1H 2 4H 3 PRE-DOSE 1 DAY 1, PM DOSE 1H 2 4H 3 PRE-DOSE 1 DAY 5, AM DOSE 1H 2 4H 3 PRE-DOSE 1 DAY 5, PM DOSE 1H 2 4H 3 PERIOD 2 4 PRE-DOSE 1 DAY 1, AM DOSE 1H 2 4H 3 PRE-DOSE 1 DAY 1, PM DOSE 1H 2 4H 3",
      "excluded_reason": null,
      "expected_outputs": [],
      "extraction_status": "CANDIDATE_RULE",
      "grain": null,
      "keys": [],
      "local_relative_source_path": "SDTMIG v3.4.pdf",
      "normalized_atomic_requirement": "All rights reserved Page 47 2021-11-29 If the protocol describes the scheduling of a dose using a reference intervention or assessment, then --TPTREF should be populated, even if it does not contribute to uniqueness.",
      "normative_strength": "NON_NORMATIVE",
      "official_url": "https://www.cdisc.org/standards/foundational/sdtmig/sdtmig-v3-4",
      "permitted_variations": [
        "All rights reserved Page 47 2021-11-29 If the protocol describes the scheduling of a dose using a reference intervention or assessment, then --TPTREF should be populated, even if it does not contribute to uniqueness.",
        "In fact, in some cases a time point may be uniquely identified without the use of VISIT, or without the use of --TPTREF, or without the use of either.",
        "(Visit variables would not be included, but --TPTREF and other time point variables would be populated.) \u2022 A trial may have only 1 reference time point per visit, and all reference time points may be similar, so that only 1 value of --TPTREF (e.g., \"DOSE\") is needed.",
        "(--TPTREF would be populated, but would not contribute to uniqueness.) \u2022 A trial may have time points not related to a reference time point.",
        "For trials with many time points, the requirement to provide uniqueness using only VISITNUM, --TPTREF, and -- TPTNUM may lead to a scheme where multiple natural keys are combined into the values of one of these variables."
      ],
      "prohibited_behavior": [],
      "required_behavior": null,
      "required_inputs": [],
      "review_status": "CANDIDATE",
      "rule_id": "sdtmig:02696563e9ada0d8",
      "rule_type": "OPERATIVE_RULE",
      "scope": {
        "candidate_kind": "variable_requirement",
        "dataset_scope": [],
        "datasets": [],
        "structure_scope": [],
        "variable_scope": [
          "DAY",
          "DOSE",
          "ELTM",
          "PERIOD",
          "PRE",
          "REPNUM",
          "TPT",
          "TPTNUM",
          "TPTREF",
          "VISIT",
          "VISITNUM"
        ],
        "variables": [
          "DAY",
          "DOSE",
          "ELTM",
          "PERIOD",
          "PRE",
          "REPNUM",
          "TPT",
          "TPTNUM",
          "TPTREF",
          "VISIT",
          "VISITNUM"
        ]
      },
      "semantic_reconstruction_status": "CANDIDATE_RECONSTRUCTED",
      "source_hash": "ea4ddbba4a3e10a55bb2f36d5e28d9cfc191090717c2426475279750a7f57021",
      "source_section_classification": "OPERATIVE_RULE",
      "standard_id": "sdtmig",
      "standard_name": "SDTM Implementation Guide",
      "standard_version": "3.4",
      "structure_scope": [],
      "validation_requirement": null,
      "validation_requirements": [],
      "variable_scope": [
        "DAY",
        "DOSE",
        "ELTM",
        "PERIOD",
        "PRE",
        "REPNUM",
        "TPT",
        "TPTNUM",
        "TPTREF",
        "VISIT",
        "VISITNUM"
      ]
    },
    {
      "applicability_conditions": [
        "Because they have business meaning, natural keys are effectively coupled to the business, and they may need to be reworked when business requirements change.",
        "Surrogate key assignment is a special case of derived data, one where a portion of the primary key is derived."
      ],
      "classification": "NON_NORMATIVE",
      "classification_status": "RESOLVED",
      "conformance_metadata": null,
      "dataset_scope": [],
      "evidence_locator": {
        "duplicate_locators": [],
        "extraction_timestamp": "2026-08-10T08:11:23+00:00",
        "page": 20,
        "parser_compiler_version": "m3r-1",
        "section": null,
        "source_binding_status": "SOURCE_BOUND",
        "source_excerpt": "3.2.1.1 Primary Keys The table in Section 3.2.1, Dataset-level Metadata, shows examples of what a sponsor might submit as variables that comprise the primary key for SDTM datasets. Because the purpose of the Keys column is to aid reviewers in understanding the structure of a dataset, sponsors should list all of the natural keys for the dataset. These keys should define uniqueness for records within a dataset, and..."
      },
      "exact_source_excerpt": "3.2.1.1 Primary Keys The table in Section 3.2.1, Dataset-level Metadata, shows examples of what a sponsor might submit as variables that comprise the primary key for SDTM datasets. Because the purpose of the Keys column is to aid reviewers in understanding the structure of a dataset, sponsors should list all of the natural keys for the dataset. These keys should define uniqueness for records within a dataset, and may define a record sort order. The identified keys for each dataset should be consistent with the description of the dataset structure as described in the Define-XML document. For all the general observation-class domains (and for some special-purpose domains), the --SEQ variable was created so that a unique record could be identified consistently across all of these domains via its use, along with STUDYID, USUBJID, and DOMAIN. In most domains, --SEQ will be a surrogate key for a set of variables that comprise the natural key. In certain instances, a supplemental qualifier (SUPP--) variable might also contribute to the natural key of a record for a particular domain. See Section 4.1.9, Assigning Natural Keys in the Metadata, for how this should be represented, and for additional information on ke ys. Definitions A natural key is a set of data (1 or more columns of an entity) that uniquely identifies that entity and distinguishes it from any other row in the table. The advantage of natural keys is that they exist already; one does not need to introduce a new, \u201cunnatural\u201d value to the data schema. One of the difficulties in choosing a natural key is that just about any natural key one can think of has the potential to change. Because they have business meaning, natural keys are effectively coupled to the business, and they may need to be reworked when business requirements change. An example of such a change in clinical trials data would be the addition of a position or location that becomes a key in a new study, but which was not collected in previous studies. A surrogate key is a single-part, artificially established identifier for a record. Surrogate key assignment is a special case of derived data, one where a portion of the primary key is derived. A surrogate key is immune to changes in business needs. In addition, the key depends on only 1 field, so it is compact. A common way of deriving surrogate key values is to assign integer values sequentially. The --SEQ variable in the SDTM datasets is an example of a surrogate key for most datasets; in some instances, however, --SEQ might be a part of a natural key as a replacement for what might have been a key (e.g., a repeat sequence number) in the sponsor's database. 3.2.1.2 CDISC Submission Value-level Metadata In general, findings data models are closely related to normalized, relational data models in a vertical structure of 1 record per observation. Because general observation class data structures are fixed, sometimes information that might appear as columns in a more horizontal (denormalized) structure in presentations and reports will instead be represented as rows in an SDTM Findings structure. Because many different types of observations are all presented in the same structure, there is a need to provide additional metadata to describe expected properties that differentiate (e.g., hematology lab results from serum chemistry lab results in terms of data type, standard units, and other attributes). For example, the Vital Signs (VS) data domain could contain subject records related to diastolic and systolic blood pressure, height, weight, and body mass index (BMI). These data are all submitted in the normalized SDTM",
      "excluded_reason": null,
      "expected_outputs": [],
      "extraction_status": "CANDIDATE_RULE",
      "grain": null,
      "keys": [
        "SDTM",
        "XML"
      ],
      "local_relative_source_path": "SDTMIG v3.4.pdf",
      "normalized_atomic_requirement": "Because the purpose of the Keys column is to aid reviewers in understanding the structure of a dataset, sponsors should list all of the natural keys for the dataset.",
      "normative_strength": "NON_NORMATIVE",
      "official_url": "https://www.cdisc.org/standards/foundational/sdtmig/sdtmig-v3-4",
      "permitted_variations": [
        "Because the purpose of the Keys column is to aid reviewers in understanding the structure of a dataset, sponsors should list all of the natural keys for the dataset.",
        "These keys should define uniqueness for records within a dataset, and may define a record sort order.",
        "The identified keys for each dataset should be consistent with the description of the dataset structure as described in the Define-XML document.",
        "See Section 4.1.9, Assigning Natural Keys in the Metadata, for how this should be represented, and for additional information on ke ys.",
        "One of the difficulties in choosing a natural key is that just about any natural key one can think of has the potential to change.",
        "Because they have business meaning, natural keys are effectively coupled to the business, and they may need to be reworked when business requirements change."
      ],
      "prohibited_behavior": [],
      "required_behavior": null,
      "required_inputs": [],
      "review_status": "CANDIDATE",
      "rule_id": "sdtmig:0387c8e3622a4124",
      "rule_type": "CONTROLLED_TERMINOLOGY",
      "scope": {
        "candidate_kind": "controlled_terminology",
        "dataset_scope": [],
        "datasets": [],
        "structure_scope": [],
        "variable_scope": [
          "BMI",
          "DOMAIN",
          "SEQ",
          "STUDYID",
          "SUPP",
          "USUBJID",
          "XML"
        ],
        "variables": [
          "BMI",
          "DOMAIN",
          "SEQ",
          "STUDYID",
          "SUPP",
          "USUBJID",
          "XML"
        ]
      },
      "semantic_reconstruction_status": "CANDIDATE_RECONSTRUCTED",
      "source_hash": "ea4ddbba4a3e10a55bb2f36d5e28d9cfc191090717c2426475279750a7f57021",
      "source_section_classification": "CONTROLLED_TERMINOLOGY",
      "standard_id": "sdtmig",
      "standard_name": "SDTM Implementation Guide",
      "standard_version": "3.4",
      "structure_scope": [],
      "validation_requirement": null,
      "validation_requirements": [],
      "variable_scope": [
        "BMI",
        "DOMAIN",
        "SEQ",
        "STUDYID",
        "SUPP",
        "USUBJID",
        "XML"
      ]
    },
    {
      "applicability_conditions": [
        "This algorithm for determining Study Day is consistent with how people typically describe sequential days relative to a fixed reference point, but creates problems if used for mathematical calculations because it does not allow for a day 0.",
        "Thus, to calculate Study Day: --DY = (date portion of --DTC) - (date portion of RFSTDTC) + 1 if --DTC is on or after RFSTDTC --DY = (date portion of --DTC) - (date portion of RFSTDTC) if --DTC precedes RFSTDTC"
      ],
      "classification": "NON_NORMATIVE",
      "classification_status": "RESOLVED",
      "conformance_metadata": null,
      "dataset_scope": [],
      "evidence_locator": {
        "duplicate_locators": [],
        "extraction_timestamp": "2026-08-10T08:11:23+00:00",
        "page": 42,
        "parser_compiler_version": "m3r-1",
        "section": null,
        "source_binding_status": "SOURCE_BOUND",
        "source_excerpt": "CDISC Study Data Tabulation Model Implementation Guide: Human Clinical Trials (3.4 Final) \u00a9 2021 Clinical Data Interchange Standards Consortium, Inc. All rights reserved Page 42 2021-11-29 The subject reference start date (RFSTDTC) is designated as study day 1. The study day value is incremented by 1 for each date following RFSTDTC. Dates prior to RFSTDTC are decreased by 1, with the date preceding RFSTDTC designa..."
      },
      "exact_source_excerpt": "CDISC Study Data Tabulation Model Implementation Guide: Human Clinical Trials (3.4 Final) \u00a9 2021 Clinical Data Interchange Standards Consortium, Inc. All rights reserved Page 42 2021-11-29 The subject reference start date (RFSTDTC) is designated as study day 1. The study day value is incremented by 1 for each date following RFSTDTC. Dates prior to RFSTDTC are decreased by 1, with the date preceding RFSTDTC designated as study day -1 (there is no study day 0). This algorithm for determining Study Day is consistent with how people typically describe sequential days relative to a fixed reference point, but creates problems if used for mathematical calculations because it does not allow for a day 0. As such, Study Day is not suited for use in subsequent numerical computations, such as calculating duration. The raw date values should be used rather than Study Day in those calculations. All study day values are integers. Thus, to calculate Study Day: --DY = (date portion of --DTC) - (date portion of RFSTDTC) + 1 if --DTC is on or after RFSTDTC --DY = (date portion of --DTC) - (date portion of RFSTDTC) if --DTC precedes RFSTDTC",
      "excluded_reason": null,
      "expected_outputs": [],
      "extraction_status": "CANDIDATE_RULE",
      "grain": null,
      "keys": [],
      "local_relative_source_path": "SDTMIG v3.4.pdf",
      "normalized_atomic_requirement": "The raw date values should be used rather than Study Day in those calculations.",
      "normative_strength": "NON_NORMATIVE",
      "official_url": "https://www.cdisc.org/standards/foundational/sdtmig/sdtmig-v3-4",
      "permitted_variations": [
        "The raw date values should be used rather than Study Day in those calculations."
      ],
      "prohibited_behavior": [],
      "required_behavior": null,
      "required_inputs": [],
      "review_status": "CANDIDATE",
      "rule_id": "sdtmig:0488ab3f354ce45c",
      "rule_type": "OPERATIVE_RULE",
      "scope": {
        "candidate_kind": "prose_requirement",
        "dataset_scope": [],
        "datasets": [],
        "structure_scope": [],
        "variable_scope": [
          "DTC",
          "RFSTDTC"
        ],
        "variables": [
          "DTC",
          "RFSTDTC"
        ]
      },
      "semantic_reconstruction_status": "CANDIDATE_RECONSTRUCTED",
      "source_hash": "ea4ddbba4a3e10a55bb2f36d5e28d9cfc191090717c2426475279750a7f57021",
      "source_section_classification": "OPERATIVE_RULE",
      "standard_id": "sdtmig",
      "standard_name": "SDTM Implementation Guide",
      "standard_version": "3.4",
      "structure_scope": [],
      "validation_requirement": null,
      "validation_requirements": [],
      "variable_scope": [
        "DTC",
        "RFSTDTC"
      ]
    },
    {
      "applicability_conditions": [
        "TRSTRESC should store all results or findings in character format; if results are numeric, they should also be stored in numeric format in TRSTRESN.",
        "Should be null if a result exists in TRORRES.",
        "Used in conjunction with TRSTAT when value is \"NOT DONE\".",
        "This column can be left null when the investigator provides the complete set of data in the domain.",
        "Perm TRACPTFL Accepted Record Flag Char (NY) Record Qualifier In cases where more than 1 independent assessor (e.g., \"RADIOLOGIST 1\", \"RADIOLOGIST 2\", \"ADJUDICATION COMMITTEE\") provide independent assessments at the same time point, this flag identifies the record that is considered to be the accepted assessment."
      ],
      "classification": "NON_NORMATIVE",
      "classification_status": "RESOLVED",
      "conformance_metadata": null,
      "dataset_scope": [],
      "evidence_locator": {
        "duplicate_locators": [],
        "extraction_timestamp": "2026-08-10T08:11:23+00:00",
        "page": 351,
        "parser_compiler_version": "m3r-1",
        "section": null,
        "source_binding_status": "SOURCE_BOUND",
        "source_excerpt": "CDISC Study Data Tabulation Model Implementation Guide: Human Clinical Trials (3.4 Final) \u00a9 2021 Clinical Data Interchange Standards Consortium, Inc. All rights reserved Page 351 2021-11-29 Variable Name Variable Label Type Controlled Terms, Codelist or Format1 Role CDISC Notes Core TRTESTCD Tumor/Lesion Assessment Short Name Char (TRTESTCD) Topic Short name of the TEST in TRTEST. TRTESTCD cannot contain character..."
      },
      "exact_source_excerpt": "CDISC Study Data Tabulation Model Implementation Guide: Human Clinical Trials (3.4 Final) \u00a9 2021 Clinical Data Interchange Standards Consortium, Inc. All rights reserved Page 351 2021-11-29 Variable Name Variable Label Type Controlled Terms, Codelist or Format1 Role CDISC Notes Core TRTESTCD Tumor/Lesion Assessment Short Name Char (TRTESTCD) Topic Short name of the TEST in TRTEST. TRTESTCD cannot contain characters other than letters, numbers, or underscores. Examples: \"TUMSTATE\", \"DIAMETER\", \"LESSCIND\", \"LESRVIND\". See assumption 3. Req TRTEST Tumor/Lesion Assessment Test Name Char (TRTEST) Synonym Qualifier Verbatim name of the test or examination used to obtain the measurement or finding. The value in TRTEST cannot be longer than 40 characters. Examples: \"Tumor State\", \"Diameter\", \"Volume\", \"Lesion Success Indicator\", \"Lesion Revascularization Indicator\". See assumption 3. Req TRORRES Result or Finding in Original Units Char Result Qualifier Result of the tumor/lesion measurement/assessment as originally received or collected. Exp TRORRESU Original Units Char (UNIT) Variable Qualifier Original units in which the data were collected. The unit for TRORRES. Example: \"mm\". Exp TRSTRESC Character Result/Finding in Std Format Char (TRPROPRS) Result Qualifier Contains the result value for all findings copied or derived from TRORRES, in a standard format or standard units. TRSTRESC should store all results or findings in character format; if results are numeric, they should also be stored in numeric format in TRSTRESN. Exp TRSTRESN Numeric Result/Finding in Standard Units Num Result Qualifier Used for continuous or numeric results or findings in standard format; copied in numeric format from TRSTRESC. TRSTRESN should store all numeric test results or findings. Exp TRSTRESU Standard Units Char (UNIT) Variable Qualifier Standardized unit used for TRSTRESN. Exp TRSTAT Completion Status Char (ND) Record Qualifier Used to indicate a scan/image/physical exam was not performed or a tumor/lesion measurement was not taken. Should be null if a result exists in TRORRES. Perm TRREASND Reason Not Done Char Record Qualifier Describes why a scan/image/physical exam was not performed or a tumor/lesion measurement was not taken. Examples: \"SCAN NOT PERFORMED\", \"NOT ASSESSABLE: IMAGE OBSCURED TUMOR\". Used in conjunction with TRSTAT when value is \"NOT DONE\". Perm TRNAM Laboratory/Vendor Name Char Record Qualifier The name or identifier of the vendor that performed the tumor/lesion measurement or assessment. This column can be left null when the investigator provides the complete set of data in the domain. Perm TRMETHOD Method Used to Identify the Tumor/Lesion Char (METHOD) Record Qualifier Method used to measure the tumor/lesion/location of interest. Examples: \"MRI\", \"CT SCAN\", \"PET SCAN\", \"Coronary angiography\". Exp TRLOBXFL Last Observation Before Exposure Flag Char (NY) Record Qualifier Operationally-derived indicator used to identify the last non-missing value prior to RFXSTDTC. Should be \"Y\" or null. Exp TRBLFL Baseline Flag Char (NY) Record Qualifier Indicator used to identify a baseline value. Should be \"Y\" or null. Note that TRBLFL is retained for backward compatibility. The authoritative baseline flag for statistical analysis is in an ADaM dataset. Perm TREVAL Evaluator Char (EVAL) Record Qualifier Role of the person who provided the evaluation. Used only for results that are subjective (e.g., assigned by a person or a group). Examples: \"ADJUDICATION COMMITTEE\", \"INDEPENDENT ASSESSOR\". Exp TREVALID Evaluator Identifier Char (MEDEVAL) Variable Qualifier Used to distinguish multiple evaluators with the same role recorded in TREVAL. Examples: \"RADIOLOGIST1\", \"RADIOLOGIST2\". See assumption 6. Perm TRACPTFL Accepted Record Flag Char (NY) Record Qualifier In cases where more than 1 independent assessor (e.g., \"RADIOLOGIST 1\", \"RADIOLOGIST 2\", \"ADJUDICATION COMMITTEE\") provide independent assessments at the same time point, this flag identifies the record that is considered to be the accepted assessment. Perm VISITNUM Visit Number Num Timing Clinical encounter number. Numeric version of VISIT, used for sorting. Exp VISIT Visit Name Char Timing Protocol-defined description of a clinical encounter. Perm VISITDY Planned Study Day of Visit Num Timing Planned study day of the visit based upon RFSTDTC in Demographics. Perm TAETORD Planned Order of Element within Arm Num Timing Epoch associated with the date/time at which the assessment was made. Perm EPOCH Epoch Char (EPOCH) Timing Epoch associated with the element in the planned sequence of elements for the arm to which the subject was assigned. Perm TRDTC Date/Time of Tumor/Lesion Measurement Char ISO 8601 datetime or interval Timing The date of the scan/image/physical exam. TRDTC does not represent the date that the image was read to identify tumors/lesions. TRDTC also does not represent the VISIT date. Exp",
      "excluded_reason": null,
      "expected_outputs": [],
      "extraction_status": "CANDIDATE_RULE",
      "grain": null,
      "keys": [
        "MEDEVAL",
        "TREVAL"
      ],
      "local_relative_source_path": "SDTMIG v3.4.pdf",
      "normalized_atomic_requirement": "TRSTRESC should store all results or findings in character format; if results are numeric, they should also be stored in numeric format in TRSTRESN.",
      "normative_strength": "NON_NORMATIVE",
      "official_url": "https://www.cdisc.org/standards/foundational/sdtmig/sdtmig-v3-4",
      "permitted_variations": [
        "TRTESTCD cannot contain characters other than letters, numbers, or underscores.",
        "The value in TRTEST cannot be longer than 40 characters.",
        "TRSTRESC should store all results or findings in character format; if results are numeric, they should also be stored in numeric format in TRSTRESN.",
        "TRSTRESN should store all numeric test results or findings.",
        "Exp TRSTAT Completion Status Char (ND) Record Qualifier Used to indicate a scan/image/physical exam was not performed or a tumor/lesion measurement was not taken.",
        "Should be null if a result exists in TRORRES.",
        "Perm TRREASND Reason Not Done Char Record Qualifier Describes why a scan/image/physical exam was not performed or a tumor/lesion measurement was not taken.",
        "Examples: \"SCAN NOT PERFORMED\", \"NOT ASSESSABLE: IMAGE OBSCURED TUMOR\".",
        "This column can be left null when the investigator provides the complete set of data in the domain.",
        "Examples: \"MRI\", \"CT SCAN\", \"PET SCAN\", \"Coronary angiography\".",
        "Should be \"Y\" or null.",
        "Perm TRDTC Date/Time of Tumor/Lesion Measurement Char ISO 8601 datetime or interval Timing The date of the scan/image/physical exam."
      ],
      "prohibited_behavior": [],
      "required_behavior": null,
      "required_inputs": [],
      "review_status": "CANDIDATE",
      "rule_id": "sdtmig:05fe8681cd00425a",
      "rule_type": "CONTROLLED_TERMINOLOGY",
      "scope": {
        "candidate_kind": "controlled_terminology",
        "dataset_scope": [],
        "datasets": [],
        "structure_scope": [],
        "variable_scope": [
          "ADJUDICATION",
          "ASSESSABLE",
          "ASSESSOR",
          "COMMITTEE",
          "DIAMETER",
          "DONE",
          "EPOCH",
          "EVAL",
          "IMAGE",
          "INDEPENDENT",
          "ISO",
          "LESRVIND",
          "LESSCIND",
          "MEDEVAL",
          "METHOD",
          "MRI",
          "NOT",
          "OBSCURED",
          "PERFORMED",
          "PET",
          "RADIOLOGIST",
          "RADIOLOGIST1",
          "RADIOLOGIST2",
          "RFSTDTC",
          "RFXSTDTC",
          "SCAN",
          "TAETORD",
          "TEST",
          "TRACPTFL",
          "TRBLFL",
          "TRDTC",
          "TREVAL",
          "TREVALID",
          "TRLOBXFL",
          "TRMETHOD",
          "TRNAM",
          "TRORRES",
          "TRORRESU",
          "TRPROPRS",
          "TRREASND",
          "TRSTAT",
          "TRSTRESC",
          "TRSTRESN",
          "TRSTRESU",
          "TRTEST",
          "TRTESTCD",
          "TUMOR",
          "TUMSTATE",
          "UNIT",
          "VISIT",
          "VISITDY",
          "VISITNUM"
        ],
        "variables": [
          "ADJUDICATION",
          "ASSESSABLE",
          "ASSESSOR",
          "COMMITTEE",
          "DIAMETER",
          "DONE",
          "EPOCH",
          "EVAL",
          "IMAGE",
          "INDEPENDENT",
          "ISO",
          "LESRVIND",
          "LESSCIND",
          "MEDEVAL",
          "METHOD",
          "MRI",
          "NOT",
          "OBSCURED",
          "PERFORMED",
          "PET",
          "RADIOLOGIST",
          "RADIOLOGIST1",
          "RADIOLOGIST2",
          "RFSTDTC",
          "RFXSTDTC",
          "SCAN",
          "TAETORD",
          "TEST",
          "TRACPTFL",
          "TRBLFL",
          "TRDTC",
          "TREVAL",
          "TREVALID",
          "TRLOBXFL",
          "TRMETHOD",
          "TRNAM",
          "TRORRES",
          "TRORRESU",
          "TRPROPRS",
          "TRREASND",
          "TRSTAT",
          "TRSTRESC",
          "TRSTRESN",
          "TRSTRESU",
          "TRTEST",
          "TRTESTCD",
          "TUMOR",
          "TUMSTATE",
          "UNIT",
          "VISIT",
          "VISITDY",
          "VISITNUM"
        ]
      },
      "semantic_reconstruction_status": "CANDIDATE_RECONSTRUCTED",
      "source_hash": "ea4ddbba4a3e10a55bb2f36d5e28d9cfc191090717c2426475279750a7f57021",
      "source_section_classification": "CONTROLLED_TERMINOLOGY",
      "standard_id": "sdtmig",
      "standard_name": "SDTM Implementation Guide",
      "standard_version": "3.4",
      "structure_scope": [],
      "validation_requirement": null,
      "validation_requirements": [],
      "variable_scope": [
        "ADJUDICATION",
        "ASSESSABLE",
        "ASSESSOR",
        "COMMITTEE",
        "DIAMETER",
        "DONE",
        "EPOCH",
        "EVAL",
        "IMAGE",
        "INDEPENDENT",
        "ISO",
        "LESRVIND",
        "LESSCIND",
        "MEDEVAL",
        "METHOD",
        "MRI",
        "NOT",
        "OBSCURED",
        "PERFORMED",
        "PET",
        "RADIOLOGIST",
        "RADIOLOGIST1",
        "RADIOLOGIST2",
        "RFSTDTC",
        "RFXSTDTC",
        "SCAN",
        "TAETORD",
        "TEST",
        "TRACPTFL",
        "TRBLFL",
        "TRDTC",
        "TREVAL",
        "TREVALID",
        "TRLOBXFL",
        "TRMETHOD",
        "TRNAM",
        "TRORRES",
        "TRORRESU",
        "TRPROPRS",
        "TRREASND",
        "TRSTAT",
        "TRSTRESC",
        "TRSTRESN",
        "TRSTRESU",
        "TRTEST",
        "TRTESTCD",
        "TUMOR",
        "TUMSTATE",
        "UNIT",
        "VISIT",
        "VISITDY",
        "VISITNUM"
      ]
    },
    {
      "applicability_conditions": [
        "Perm EXDOSE Dose Num Record Qualifier Amount of EXTRT when numeric.",
        "Not populated when EXDOSTXT is populated.",
        "Exp EXDOSTXT Dose Description Char Record Qualifier Amount of EXTRT when non-numeric.",
        "Not populated when EXDOSE is populated."
      ],
      "classification": "NON_NORMATIVE",
      "classification_status": "RESOLVED",
      "conformance_metadata": null,
      "dataset_scope": [],
      "evidence_locator": {
        "duplicate_locators": [],
        "extraction_timestamp": "2026-08-10T08:11:23+00:00",
        "page": 104,
        "parser_compiler_version": "m3r-1",
        "section": null,
        "source_binding_status": "SOURCE_BOUND",
        "source_excerpt": "CDISC Study Data Tabulation Model Implementation Guide: Human Clinical Trials (3.4 Final) \u00a9 2021 Clinical Data Interchange Standards Consortium, Inc. All rights reserved Page 104 2021-11-29 6.1.3.1 Exposure (EX) EX \u2013 Description/Overview An interventions domain that contains the details of a subject's exposure to protocol -specified study treatment. Study treatment may be any intervention that is prospectively def..."
      },
      "exact_source_excerpt": "CDISC Study Data Tabulation Model Implementation Guide: Human Clinical Trials (3.4 Final) \u00a9 2021 Clinical Data Interchange Standards Consortium, Inc. All rights reserved Page 104 2021-11-29 6.1.3.1 Exposure (EX) EX \u2013 Description/Overview An interventions domain that contains the details of a subject's exposure to protocol -specified study treatment. Study treatment may be any intervention that is prospectively defined as a test material within a study, and is typically but not always supplied to the subject. EX \u2013 Specification ex.xpt, Exposure \u2014 Interventions. One record per protocol-specified study treatment, constant-dosing interval, per subject, Tabulation. Variable Name Variable Label Type Controlled Terms, Codelist or Format1 Role CDISC Notes Core STUDYID Study Identifier Char Identifier Unique identifier for a study. Req DOMAIN Domain Abbreviation Char EX Identifier Two-character abbreviation for the domain. Req USUBJID Unique Subject Identifier Char Identifier Identifier used to uniquely identify a subject across all studies for all applications or submissions involving the product. Req EXSEQ Sequence Number Num Identifier Sequence number given to ensure uniqueness of subject records within a domain. May be any valid number. Req EXGRPID Group ID Char Identifier Used to tie together a block of related records in a single domain for a subject. Perm EXREFID Reference ID Char Identifier Internal or external identifier (e.g., kit number, bottle label, vial identifier). Perm EXSPID Sponsor-Defined Identifier Char Identifier Sponsor-defined reference number. May be preprinted on the CRF as an explicit line identifier or defined in the sponsor's operational database. Example: Line number on a CRF page. Perm EXLNKID Link ID Char Identifier Identifier used to link related records across domains. Perm EXLNKGRP Link Group ID Char Identifier Identifier used to link related, grouped records across domains. Perm EXTRT Name of Treatment Char * Topic Name of the protocol-specified study treatment given during the dosing period for the observation. Req EXCAT Category of Treatment Char * Grouping Qualifier Used to define a category of EXTRT values. Perm EXSCAT Subcategory of Treatment Char * Grouping Qualifier A further categorization of EXCAT values. Perm EXDOSE Dose Num Record Qualifier Amount of EXTRT when numeric. Not populated when EXDOSTXT is populated. Exp EXDOSTXT Dose Description Char Record Qualifier Amount of EXTRT when non-numeric. Dosing amounts or a range of dosing information collected in text form. Example: \"200-400\". Not populated when EXDOSE is populated. Perm EXDOSU Dose Units Char (UNIT) Variable Qualifier Units for EXDOSE, EXDOSTOT, or EXDOSTXT representing protocol-specified values. Examples: \"ng\", \"mg\", \"mg/kg\", \"mg/m2\". Exp EXDOSFRM Dose Form Char (FRM) Variable Qualifier Dose form for EXTRT. Examples: \"TABLET\", \"LOTION\". Exp EXDOSFRQ Dosing Frequency per Interval Char (FREQ) Record Qualifier Usually expressed as the number of repeated administrations of EXDOSE within a specific time period. Examples: \"Q2H\", \"QD\", \"BID\". Perm EXDOSRGM Intended Dose Regimen Char Record Qualifier Text description of the intended schedule or regimen for the Intervention. Example: \"TWO WEEKS ON, TWO WEEKS OFF\". Perm EXROUTE Route of Administration Char (ROUTE) Variable Qualifier Route of administration for the intervention. Examples: \"ORAL\", \"INTRAVENOUS\". Perm EXLOT Lot Number Char Record Qualifier Lot number of the intervention product. Perm EXLOC Location of Dose Administration Char (LOC) Record Qualifier Specifies location of administration. Examples: \"ARM\", \"LIP\". Perm EXLAT Laterality Char (LAT) Variable Qualifier Qualifier for anatomical location further detailing laterality of the intervention administration. Examples: \"LEFT\", \"RIGHT\". Perm",
      "excluded_reason": null,
      "expected_outputs": [],
      "extraction_status": "CANDIDATE_RULE",
      "grain": "One record per protocol-specified study treatment, constant-dosing interval, per subject, Tabulation",
      "keys": [],
      "local_relative_source_path": "SDTMIG v3.4.pdf",
      "normalized_atomic_requirement": "Study treatment may be any intervention that is prospectively defined as a test material within a study, and is typically but not always supplied to the subject.",
      "normative_strength": "NON_NORMATIVE",
      "official_url": "https://www.cdisc.org/standards/foundational/sdtmig/sdtmig-v3-4",
      "permitted_variations": [
        "Study treatment may be any intervention that is prospectively defined as a test material within a study, and is typically but not always supplied to the subject.",
        "May be any valid number.",
        "May be preprinted on the CRF as an explicit line identifier or defined in the sponsor's operational database."
      ],
      "prohibited_behavior": [],
      "required_behavior": null,
      "required_inputs": [],
      "review_status": "CANDIDATE",
      "rule_id": "sdtmig:0653ca4bde0ec386",
      "rule_type": "CONTROLLED_TERMINOLOGY",
      "scope": {
        "candidate_kind": "controlled_terminology",
        "dataset_scope": [],
        "datasets": [],
        "structure_scope": [],
        "variable_scope": [
          "ARM",
          "BID",
          "CRF",
          "DOMAIN",
          "EXCAT",
          "EXDOSE",
          "EXDOSFRM",
          "EXDOSFRQ",
          "EXDOSRGM",
          "EXDOSTOT",
          "EXDOSTXT",
          "EXDOSU",
          "EXGRPID",
          "EXLAT",
          "EXLNKGRP",
          "EXLNKID",
          "EXLOC",
          "EXLOT",
          "EXREFID",
          "EXROUTE",
          "EXSCAT",
          "EXSEQ",
          "EXSPID",
          "EXTRT",
          "FREQ",
          "FRM",
          "INTRAVENOUS",
          "LAT",
          "LEFT",
          "LIP",
          "LOC",
          "LOTION",
          "OFF",
          "ORAL",
          "Q2H",
          "RIGHT",
          "ROUTE",
          "STUDYID",
          "TABLET",
          "TWO",
          "UNIT",
          "USUBJID",
          "WEEKS"
        ],
        "variables": [
          "ARM",
          "BID",
          "CRF",
          "DOMAIN",
          "EXCAT",
          "EXDOSE",
          "EXDOSFRM",
          "EXDOSFRQ",
          "EXDOSRGM",
          "EXDOSTOT",
          "EXDOSTXT",
          "EXDOSU",
          "EXGRPID",
          "EXLAT",
          "EXLNKGRP",
          "EXLNKID",
          "EXLOC",
          "EXLOT",
          "EXREFID",
          "EXROUTE",
          "EXSCAT",
          "EXSEQ",
          "EXSPID",
          "EXTRT",
          "FREQ",
          "FRM",
          "INTRAVENOUS",
          "LAT",
          "LEFT",
          "LIP",
          "LOC",
          "LOTION",
          "OFF",
          "ORAL",
          "Q2H",
          "RIGHT",
          "ROUTE",
          "STUDYID",
          "TABLET",
          "TWO",
          "UNIT",
          "USUBJID",
          "WEEKS"
        ]
      },
      "semantic_reconstruction_status": "CANDIDATE_RECONSTRUCTED",
      "source_hash": "ea4ddbba4a3e10a55bb2f36d5e28d9cfc191090717c2426475279750a7f57021",
      "source_section_classification": "CONTROLLED_TERMINOLOGY",
      "standard_id": "sdtmig",
      "standard_name": "SDTM Implementation Guide",
      "standard_version": "3.4",
      "structure_scope": [],
      "validation_requirement": null,
      "validation_requirements": [],
      "variable_scope": [
        "ARM",
        "BID",
        "CRF",
        "DOMAIN",
        "EXCAT",
        "EXDOSE",
        "EXDOSFRM",
        "EXDOSFRQ",
        "EXDOSRGM",
        "EXDOSTOT",
        "EXDOSTXT",
        "EXDOSU",
        "EXGRPID",
        "EXLAT",
        "EXLNKGRP",
        "EXLNKID",
        "EXLOC",
        "EXLOT",
        "EXREFID",
        "EXROUTE",
        "EXSCAT",
        "EXSEQ",
        "EXSPID",
        "EXTRT",
        "FREQ",
        "FRM",
        "INTRAVENOUS",
        "LAT",
        "LEFT",
        "LIP",
        "LOC",
        "LOTION",
        "OFF",
        "ORAL",
        "Q2H",
        "RIGHT",
        "ROUTE",
        "STUDYID",
        "TABLET",
        "TWO",
        "UNIT",
        "USUBJID",
        "WEEKS"
      ]
    },
    {
      "applicability_conditions": [],
      "classification": "NON_NORMATIVE",
      "classification_status": "RESOLVED",
      "conformance_metadata": null,
      "dataset_scope": [],
      "evidence_locator": {
        "duplicate_locators": [],
        "extraction_timestamp": "2026-08-10T08:11:23+00:00",
        "page": 169,
        "parser_compiler_version": "m3r-1",
        "section": null,
        "source_binding_status": "SOURCE_BOUND",
        "source_excerpt": "CDISC Study Data Tabulation Model Implementation Guide: Human Clinical Trials (3.4 Final) \u00a9 2021 Clinical Data Interchange Standards Consortium, Inc. All rights reserved Page 169 2021-11-29 Variable Name Variable Label Type Controlled Terms, Codelist or Format1 Role CDISC Notes Core HOENRTPT End Relative to Reference Time Point Char (STENRF) Timing Identifies the end of the event as being before or after the refer..."
      },
      "exact_source_excerpt": "CDISC Study Data Tabulation Model Implementation Guide: Human Clinical Trials (3.4 Final) \u00a9 2021 Clinical Data Interchange Standards Consortium, Inc. All rights reserved Page 169 2021-11-29 Variable Name Variable Label Type Controlled Terms, Codelist or Format1 Role CDISC Notes Core HOENRTPT End Relative to Reference Time Point Char (STENRF) Timing Identifies the end of the event as being before or after the reference time point defined by variable HOENTPT. Not all values of the codelist are allowable for this variable. See Section 4.4.7, Use of Relative Timing Variables. Perm HOENTPT End Reference Time Point Char Timing Description or date/time in ISO 8601 character format of the reference point referred to by HOENRTPT. Examples: \"2003-12-25\", \"VISIT 2\". Perm 1In this column, an asterisk (*) indicates that the variable may be subject to controlled terminology. CDISC/NCI codelist values are enclosed in parentheses.",
      "excluded_reason": null,
      "expected_outputs": [],
      "extraction_status": "CANDIDATE_RULE",
      "grain": null,
      "keys": [],
      "local_relative_source_path": "SDTMIG v3.4.pdf",
      "normalized_atomic_requirement": "Perm 1In this column, an asterisk (*) indicates that the variable may be subject to controlled terminology.",
      "normative_strength": "NON_NORMATIVE",
      "official_url": "https://www.cdisc.org/standards/foundational/sdtmig/sdtmig-v3-4",
      "permitted_variations": [
        "Perm 1In this column, an asterisk (*) indicates that the variable may be subject to controlled terminology."
      ],
      "prohibited_behavior": [],
      "required_behavior": null,
      "required_inputs": [],
      "review_status": "CANDIDATE",
      "rule_id": "sdtmig:07047187b98fd536",
      "rule_type": "CONTROLLED_TERMINOLOGY",
      "scope": {
        "candidate_kind": "controlled_terminology",
        "dataset_scope": [],
        "datasets": [],
        "structure_scope": [],
        "variable_scope": [
          "HOENRTPT",
          "HOENTPT",
          "ISO",
          "NCI",
          "STENRF",
          "VISIT"
        ],
        "variables": [
          "HOENRTPT",
          "HOENTPT",
          "ISO",
          "NCI",
          "STENRF",
          "VISIT"
        ]
      },
      "semantic_reconstruction_status": "CANDIDATE_RECONSTRUCTED",
      "source_hash": "ea4ddbba4a3e10a55bb2f36d5e28d9cfc191090717c2426475279750a7f57021",
      "source_section_classification": "CONTROLLED_TERMINOLOGY",
      "standard_id": "sdtmig",
      "standard_name": "SDTM Implementation Guide",
      "standard_version": "3.4",
      "structure_scope": [],
      "validation_requirement": null,
      "validation_requirements": [],
      "variable_scope": [
        "HOENRTPT",
        "HOENTPT",
        "ISO",
        "NCI",
        "STENRF",
        "VISIT"
      ]
    },
    {
      "applicability_conditions": [],
      "classification": "NON_NORMATIVE",
      "classification_status": "RESOLVED",
      "conformance_metadata": null,
      "dataset_scope": [],
      "evidence_locator": {
        "duplicate_locators": [],
        "extraction_timestamp": "2026-08-10T08:11:23+00:00",
        "page": 366,
        "parser_compiler_version": "m3r-1",
        "section": null,
        "source_binding_status": "SOURCE_BOUND",
        "source_excerpt": "CDISC Study Data Tabulation Model Implementation Guide: Human Clinical Trials (3.4 Final) \u00a9 2021 Clinical Data Interchange Standards Consortium, Inc. All rights reserved Page 366 2021-11-29 Variable Name Variable Label Type Controlled Terms, Codelist or Format1 Role CDISC Notes Core FALOC Location of the Finding About Char (LOC) Record Qualifier Used to specify the location of the clinical evaluation. Example: \"AR..."
      },
      "exact_source_excerpt": "CDISC Study Data Tabulation Model Implementation Guide: Human Clinical Trials (3.4 Final) \u00a9 2021 Clinical Data Interchange Standards Consortium, Inc. All rights reserved Page 366 2021-11-29 Variable Name Variable Label Type Controlled Terms, Codelist or Format1 Role CDISC Notes Core FALOC Location of the Finding About Char (LOC) Record Qualifier Used to specify the location of the clinical evaluation. Example: \"ARM\". Perm FALAT Laterality Char (LAT) Variable Qualifier Qualifier for anatomical location or specimen further detailing laterality. Examples: \"RIGHT\", \"LEFT\", \"BILATERAL\". Perm FALOBXFL Last Observation Before Exposure Flag Char (NY) Record Qualifier Operationally-derived indicator used to identify the last non-missing value prior to RFXSTDTC. The value should be \"Y\" or null. Perm FABLFL Baseline Flag Char (NY) Record Qualifier Indicator used to identify a baseline value. The value should be \"Y\" or null. Note that FABLFL is retained for backward compatibility. The authoritative baseline flag for statistical analysis is in an ADaM dataset. Perm FAEVAL Evaluator Char (EVAL) Record Qualifier Role of the person who provided the evaluation. Used only for results that are subjective (e.g., assigned by a person or a group). Should be null for records that contain collected or derived data. Examples: \"INVESTIGATOR\", \"ADJUDICATION COMMITTEE\", \"VENDOR\". Perm VISITNUM Visit Number Num Timing 1. Clinical encounter number. 2. Numeric version of VISIT, used for sorting. Exp VISIT Visit Name Char Timing 1. Protocol-defined description of clinical encounter. 2. May be used in addition to VISITNUM and/or VISITDY. Perm VISITDY Planned Study Day of Visit Num Timing Planned study day of the visit based upon RFSTDTC in Demographics. Perm TAETORD Planned Order of Element within Arm Num Timing Number that gives the planned order of the element within the arm. Perm EPOCH Epoch Char (EPOCH) Timing Epoch associated with the date/time of the observation. Examples: \"SCREENING\", \"TREATMENT\", \"FOLLOW-UP\". Perm FADTC Date/Time of Collection Char ISO 8601 datetime or interval Timing Collection date and time of findings assessment represented in ISO 8601 character format. Exp FADY Study Day of Collection Num Timing 1. Study day of collection, measured as integer days. 2. Algorithm for calculations must be relative to the sponsor-defined RFSTDTC variable in Demographics. This formula should be consistent across the submission. Perm 1In this column, an asterisk (*) indicates that the variable may be subject to controlled terminology. CDISC/NCI codelist values are enclosed in parentheses.",
      "excluded_reason": null,
      "expected_outputs": [],
      "extraction_status": "CANDIDATE_RULE",
      "grain": null,
      "keys": [],
      "local_relative_source_path": "SDTMIG v3.4.pdf",
      "normalized_atomic_requirement": "The value should be \"Y\" or null.",
      "normative_strength": "NON_NORMATIVE",
      "official_url": "https://www.cdisc.org/standards/foundational/sdtmig/sdtmig-v3-4",
      "permitted_variations": [
        "The value should be \"Y\" or null.",
        "Should be null for records that contain collected or derived data.",
        "May be used in addition to VISITNUM and/or VISITDY.",
        "This formula should be consistent across the submission.",
        "Perm 1In this column, an asterisk (*) indicates that the variable may be subject to controlled terminology."
      ],
      "prohibited_behavior": [],
      "required_behavior": null,
      "required_inputs": [],
      "review_status": "CANDIDATE",
      "rule_id": "sdtmig:0755f947cb71dd85",
      "rule_type": "CONTROLLED_TERMINOLOGY",
      "scope": {
        "candidate_kind": "controlled_terminology",
        "dataset_scope": [],
        "datasets": [],
        "structure_scope": [],
        "variable_scope": [
          "ADJUDICATION",
          "ARM",
          "BILATERAL",
          "COMMITTEE",
          "EPOCH",
          "EVAL",
          "FABLFL",
          "FADTC",
          "FADY",
          "FAEVAL",
          "FALAT",
          "FALOBXFL",
          "FALOC",
          "FOLLOW",
          "INVESTIGATOR",
          "ISO",
          "LAT",
          "LEFT",
          "LOC",
          "NCI",
          "RFSTDTC",
          "RFXSTDTC",
          "RIGHT",
          "SCREENING",
          "TAETORD",
          "TREATMENT",
          "VENDOR",
          "VISIT",
          "VISITDY",
          "VISITNUM"
        ],
        "variables": [
          "ADJUDICATION",
          "ARM",
          "BILATERAL",
          "COMMITTEE",
          "EPOCH",
          "EVAL",
          "FABLFL",
          "FADTC",
          "FADY",
          "FAEVAL",
          "FALAT",
          "FALOBXFL",
          "FALOC",
          "FOLLOW",
          "INVESTIGATOR",
          "ISO",
          "LAT",
          "LEFT",
          "LOC",
          "NCI",
          "RFSTDTC",
          "RFXSTDTC",
          "RIGHT",
          "SCREENING",
          "TAETORD",
          "TREATMENT",
          "VENDOR",
          "VISIT",
          "VISITDY",
          "VISITNUM"
        ]
      },
      "semantic_reconstruction_status": "CANDIDATE_RECONSTRUCTED",
      "source_hash": "ea4ddbba4a3e10a55bb2f36d5e28d9cfc191090717c2426475279750a7f57021",
      "source_section_classification": "CONTROLLED_TERMINOLOGY",
      "standard_id": "sdtmig",
      "standard_name": "SDTM Implementation Guide",
      "standard_version": "3.4",
      "structure_scope": [],
      "validation_requirement": "Algorithm for calculations must be relative to the sponsor-defined RFSTDTC variable in Demographics.",
      "validation_requirements": [
        "Algorithm for calculations must be relative to the sponsor-defined RFSTDTC variable in Demographics."
      ],
      "variable_scope": [
        "ADJUDICATION",
        "ARM",
        "BILATERAL",
        "COMMITTEE",
        "EPOCH",
        "EVAL",
        "FABLFL",
        "FADTC",
        "FADY",
        "FAEVAL",
        "FALAT",
        "FALOBXFL",
        "FALOC",
        "FOLLOW",
        "INVESTIGATOR",
        "ISO",
        "LAT",
        "LEFT",
        "LOC",
        "NCI",
        "RFSTDTC",
        "RFXSTDTC",
        "RIGHT",
        "SCREENING",
        "TAETORD",
        "TREATMENT",
        "VENDOR",
        "VISIT",
        "VISITDY",
        "VISITNUM"
      ]
    },
    {
      "applicability_conditions": [
        "QSSTRESC should store all findings in character format; if findings are numeric, they should also be stored in numeric format in QSSTRESN.",
        "Should be null if a result exists in QSORRES.",
        "Used in conjunction with QSSTAT when value is \"NOT DONE\".",
        "Perm QSTPT Planned Time Point Name Char Timing Text description of time when questionnaire should be administered.",
        "This variable is useful where there are repetitive measures."
      ],
      "classification": "NON_NORMATIVE",
      "classification_status": "RESOLVED",
      "conformance_metadata": null,
      "dataset_scope": [],
      "evidence_locator": {
        "duplicate_locators": [],
        "extraction_timestamp": "2026-08-10T08:11:23+00:00",
        "page": 325,
        "parser_compiler_version": "m3r-1",
        "section": null,
        "source_binding_status": "SOURCE_BOUND",
        "source_excerpt": "CDISC Study Data Tabulation Model Implementation Guide: Human Clinical Trials (3.4 Final) \u00a9 2021 Clinical Data Interchange Standards Consortium, Inc. All rights reserved Page 325 2021-11-29 Variable Name Variable Label Type Controlled Terms, Codelist or Format1 Role CDISC Notes Core QSORRESU Original Units Char (UNIT) Variable Qualifier Original units in which the data were collected. The unit for QSORRES, such as..."
      },
      "exact_source_excerpt": "CDISC Study Data Tabulation Model Implementation Guide: Human Clinical Trials (3.4 Final) \u00a9 2021 Clinical Data Interchange Standards Consortium, Inc. All rights reserved Page 325 2021-11-29 Variable Name Variable Label Type Controlled Terms, Codelist or Format1 Role CDISC Notes Core QSORRESU Original Units Char (UNIT) Variable Qualifier Original units in which the data were collected. The unit for QSORRES, such as minutes or seconds or the units associated with a visual analog scale. Perm QSSTRESC Character Result/Finding in Std Format Char Result Qualifier Contains the finding for all questions or subscores copied or derived from QSORRES, in a standard format or standard units. QSSTRESC should store all findings in character format; if findings are numeric, they should also be stored in numeric format in QSSTRESN. If question scores are derived from the original finding, then the standard format is the score. Examples: \"0\", \"1\". When sponsors apply codelist to indicate the code values are statistically meaningful standardized scores (which are defined by sponsors or by valid methodologies, e.g., SF36 questionnaires), QSORRES will contain the decode format; QSSTRESC and QSSTRESN may contain the standardized code values or scores. Exp QSSTRESN Numeric Finding in Standard Units Num Result Qualifier Used for continuous or numeric findings in standard format; copied in numeric format from QSSTRESC. QSSTRESN should store all numeric results or findings. Perm QSSTRESU Standard Units Char (UNIT) Variable Qualifier Standardized unit used for QSSTRESC or QSSTRESN. Perm QSSTAT Completion Status Char (ND) Record Qualifier Used to indicate that a question was not done or was not answered. Should be null if a result exists in QSORRES. Perm QSREASND Reason Not Performed Char Record Qualifier Describes why a question was not answered. Used in conjunction with QSSTAT when value is \"NOT DONE\". Example: \"SUBJECT REFUSED\". Perm QSMETHOD Method of Test or Examination Char (QRSMTHOD) Record Qualifier Method of the test or examination. Perm QSLOBXFL Last Observation Before Exposure Flag Char (NY) Record Qualifier Operationally derived indicator used to identify the last non-missing value prior to RFXSTDTC. Should be \"Y\" or null. Exp QSBLFL Baseline Flag Char (NY) Record Qualifier Indicator used to identify a baseline value. Should be \"Y\" or null. Note that QSBLFL is retained for backward compatibility. The authoritative baseline for statistical analysis is in an ADaM dataset. Perm QSDRVFL Derived Flag Char (NY) Record Qualifier Used to indicate a derived record. The value should be \"Y\" or null. Records that represent the average of other records or questionnaire subscores that do not come from the CRF are examples of records that would be derived for the submission datasets. If QSDRVFL = \"Y\", then QSORRES may be null with QSSTRESC and (if numeric) QSSTRESN having the derived value. Perm VISITNUM Visit Number Num Timing Clinical encounter number. Numeric version of VISIT, used for sorting. Exp VISIT Visit Name Char Timing Protocol-defined description of clinical encounter. May be used in addition to VISITNUM and/or VISITDY. Perm VISITDY Planned Study Day of Visit Num Timing Planned study day of the visit based upon RFSTDTC in Demographics. Perm TAETORD Planned Order of Element within Arm Num Timing Number that gives the planned order of the element within the arm for the element in which the assessment was made. Perm EPOCH Epoch Char (EPOCH) Timing Epoch associated with the observation date/time of the physical exam finding. Perm QSDTC Date/Time of Finding Char ISO 8601 datetime or interval Timing Date of questionnaire. Exp QSDY Study Day of Finding Num Timing Study day of finding collection, measured as integer days. Algorithm for calculations must be relative to the sponsor-defined RFSTDTC variable in Demographics. Perm QSTPT Planned Time Point Name Char Timing Text description of time when questionnaire should be administered. This may be represented as an elapsed time relative to a fixed reference point (e.g., \"TIME OF LAST DOSE\"). See QSTPTNUM and QSTPTREF. Perm QSTPTNUM Planned Time Point Number Num Timing Numerical version of QSTPT to aid in sorting. Perm QSELTM Planned Elapsed Time from Time Point Ref Char ISO 8601 duration Timing Planned elapsed time (in ISO 8601) relative to a planned fixed reference (QSTPTREF). This variable is useful where there are repetitive measures. Not a clock time or a date time variable. Represented as an ISO 8601 duration. Examples: \"-PT15M\" to represent the period of 15 minutes prior to the reference point indicated by QSTPTREF, \"PT8H\" to represent the period of 8 hours after the reference point indicated by QSTPTREF. Perm",
      "excluded_reason": null,
      "expected_outputs": [],
      "extraction_status": "CANDIDATE_RULE",
      "grain": null,
      "keys": [],
      "local_relative_source_path": "SDTMIG v3.4.pdf",
      "normalized_atomic_requirement": "QSSTRESC should store all findings in character format; if findings are numeric, they should also be stored in numeric format in QSSTRESN.",
      "normative_strength": "NON_NORMATIVE",
      "official_url": "https://www.cdisc.org/standards/foundational/sdtmig/sdtmig-v3-4",
      "permitted_variations": [
        "QSSTRESC should store all findings in character format; if findings are numeric, they should also be stored in numeric format in QSSTRESN.",
        "When sponsors apply codelist to indicate the code values are statistically meaningful standardized scores (which are defined by sponsors or by valid methodologies, e.g., SF36 questionnaires), QSORRES will contain the decode format; QSSTRESC and QSSTRESN may contain the standardized code values or scores.",
        "QSSTRESN should store all numeric results or findings.",
        "Should be null if a result exists in QSORRES.",
        "Should be \"Y\" or null.",
        "The value should be \"Y\" or null.",
        "If QSDRVFL = \"Y\", then QSORRES may be null with QSSTRESC and (if numeric) QSSTRESN having the derived value.",
        "May be used in addition to VISITNUM and/or VISITDY.",
        "Perm QSTPT Planned Time Point Name Char Timing Text description of time when questionnaire should be administered.",
        "This may be represented as an elapsed time relative to a fixed reference point (e.g., \"TIME OF LAST DOSE\")."
      ],
      "prohibited_behavior": [],
      "required_behavior": null,
      "required_inputs": [],
      "review_status": "CANDIDATE",
      "rule_id": "sdtmig:084febe57371ed9a",
      "rule_type": "CONTROLLED_TERMINOLOGY",
      "scope": {
        "candidate_kind": "controlled_terminology",
        "dataset_scope": [],
        "datasets": [],
        "structure_scope": [],
        "variable_scope": [
          "CRF",
          "DONE",
          "DOSE",
          "EPOCH",
          "ISO",
          "LAST",
          "NOT",
          "PT15M",
          "PT8H",
          "QRSMTHOD",
          "QSBLFL",
          "QSDRVFL",
          "QSDTC",
          "QSDY",
          "QSELTM",
          "QSLOBXFL",
          "QSMETHOD",
          "QSORRES",
          "QSORRESU",
          "QSREASND",
          "QSSTAT",
          "QSSTRESC",
          "QSSTRESN",
          "QSSTRESU",
          "QSTPT",
          "QSTPTNUM",
          "QSTPTREF",
          "REFUSED",
          "RFSTDTC",
          "RFXSTDTC",
          "SF36",
          "SUBJECT",
          "TAETORD",
          "TIME",
          "UNIT",
          "VISIT",
          "VISITDY",
          "VISITNUM"
        ],
        "variables": [
          "CRF",
          "DONE",
          "DOSE",
          "EPOCH",
          "ISO",
          "LAST",
          "NOT",
          "PT15M",
          "PT8H",
          "QRSMTHOD",
          "QSBLFL",
          "QSDRVFL",
          "QSDTC",
          "QSDY",
          "QSELTM",
          "QSLOBXFL",
          "QSMETHOD",
          "QSORRES",
          "QSORRESU",
          "QSREASND",
          "QSSTAT",
          "QSSTRESC",
          "QSSTRESN",
          "QSSTRESU",
          "QSTPT",
          "QSTPTNUM",
          "QSTPTREF",
          "REFUSED",
          "RFSTDTC",
          "RFXSTDTC",
          "SF36",
          "SUBJECT",
          "TAETORD",
          "TIME",
          "UNIT",
          "VISIT",
          "VISITDY",
          "VISITNUM"
        ]
      },
      "semantic_reconstruction_status": "CANDIDATE_RECONSTRUCTED",
      "source_hash": "ea4ddbba4a3e10a55bb2f36d5e28d9cfc191090717c2426475279750a7f57021",
      "source_section_classification": "CONTROLLED_TERMINOLOGY",
      "standard_id": "sdtmig",
      "standard_name": "SDTM Implementation Guide",
      "standard_version": "3.4",
      "structure_scope": [],
      "validation_requirement": "Algorithm for calculations must be relative to the sponsor-defined RFSTDTC variable in Demographics.",
      "validation_requirements": [
        "Algorithm for calculations must be relative to the sponsor-defined RFSTDTC variable in Demographics."
      ],
      "variable_scope": [
        "CRF",
        "DONE",
        "DOSE",
        "EPOCH",
        "ISO",
        "LAST",
        "NOT",
        "PT15M",
        "PT8H",
        "QRSMTHOD",
        "QSBLFL",
        "QSDRVFL",
        "QSDTC",
        "QSDY",
        "QSELTM",
        "QSLOBXFL",
        "QSMETHOD",
        "QSORRES",
        "QSORRESU",
        "QSREASND",
        "QSSTAT",
        "QSSTRESC",
        "QSSTRESN",
        "QSSTRESU",
        "QSTPT",
        "QSTPTNUM",
        "QSTPTREF",
        "REFUSED",
        "RFSTDTC",
        "RFXSTDTC",
        "SF36",
        "SUBJECT",
        "TAETORD",
        "TIME",
        "UNIT",
        "VISIT",
        "VISITDY",
        "VISITNUM"
      ]
    },
    {
      "applicability_conditions": [],
      "classification": "NON_NORMATIVE",
      "classification_status": "RESOLVED",
      "conformance_metadata": null,
      "dataset_scope": [],
      "evidence_locator": {
        "duplicate_locators": [],
        "extraction_timestamp": "2026-08-10T08:11:23+00:00",
        "page": 329,
        "parser_compiler_version": "m3r-1",
        "section": null,
        "source_binding_status": "SOURCE_BOUND",
        "source_excerpt": "CDISC Study Data Tabulation Model Implementation Guide: Human Clinical Trials (3.4 Final) \u00a9 2021 Clinical Data Interchange Standards Consortium, Inc. All rights reserved Page 329 2021-11-29 Row STUDYID DOMAIN USUBJID QSSEQ QSTESTCD QSTEST QSCAT QSORRES QSSTRESC QSSTRESN QSLOBXFL VISITNUM QSDTC QSDY 9 CDISC01 QS CDISC01.100014 9 SWLS0104 SWLS01-Have Gotten Important Things SWLS Disagree 2 2 Y 1 2003-04- 15 1 10 CDI..."
      },
      "exact_source_excerpt": "CDISC Study Data Tabulation Model Implementation Guide: Human Clinical Trials (3.4 Final) \u00a9 2021 Clinical Data Interchange Standards Consortium, Inc. All rights reserved Page 329 2021-11-29 Row STUDYID DOMAIN USUBJID QSSEQ QSTESTCD QSTEST QSCAT QSORRES QSSTRESC QSSTRESN QSLOBXFL VISITNUM QSDTC QSDY 9 CDISC01 QS CDISC01.100014 9 SWLS0104 SWLS01-Have Gotten Important Things SWLS Disagree 2 2 Y 1 2003-04- 15 1 10 CDISC01 QS CDISC01.100014 10 SWLS0105 SWLS01-Live Life Over Change Nothing SWLS Strongly disagree 1 1 Y 1 2003-04- 15 1 6.3.9.3 Disease Response and Clin Classification (RS) RS \u2013 Description/Overview A findings domain for the assessment of disease response to therapy, or clinical classification based on published criteria. Data in this domain may or may not be collected by means of a standard CRF. \u2022 Clinical classification instruments usually have a standard CRF for data capture, but also may instead be based on an evaluat or providing response evaluations based on published criteria. \u2022 Oncology response criteria are evaluated based on published criteria. \u2022 Additional disease classifications or scoring systems (e.g., staging criteria) are based on published criteria. \u2022 There are separate supplements prepared for clinical classification instruments and therapeu tic-area disease response criteria use cases. RS \u2013 Specification rs.xpt, Disease Response and Clin Classification \u2014 Findings. One record per response assessment or clinical classification assessment per time point per visit per subject per assessor per med ical evaluator, Tabulation. Variable Name Variable Label Type Controlled Terms, Codelist or Format1 Role CDISC Notes Core STUDYID Study Identifier Char Identifier Unique identifier for a study. Req DOMAIN Domain Abbreviation Char RS Identifier Two-character abbreviation for the domain. Req USUBJID Unique Subject Identifier Char Identifier Identifier used to uniquely identify a subject across all studies for all applications or submissions involving the product. Req RSSEQ Sequence Number Num Identifier Sequence number given to ensure uniqueness within a dataset for a subject. May be any valid number. Req RSGRPID Group ID Char Identifier Used to link together a block of related records within a subject in a domain. Perm RSREFID Reference ID Char Identifier Internal or external identifier. Perm RSSPID Sponsor-Defined Identifier Char Identifier Sponsor-defined identifier. Perm RSLNKID Link ID Char Identifier An identifier used to link the response assessment to the related measurement record in another domain which was used to determine the response result. LNKID values group records within USUBJID. Perm RSLNKGRP Link Group ID Char Identifier A grouping identifier used to link the response assessment to a group of measurement/assessment records which were used in the assessment of the response. LNKGRP values group records within USUBJID. Perm RSTESTCD Assessment Short Name Char (ONCRTSCD) Topic Short name of the TEST in RSTEST. The value in RSTESTCD cannot be longer than 8 characters, nor can it start with a number (e.g., \"1TEST\" is not valid). RSTESTCD cannot contain characters other than letters, numbers, or underscores. Examples: \"TRGRESP\", \"NTRGRESP\", \"OVRLRESP\", \"SYMPTDTR\", \"CPS0102\". Req",
      "excluded_reason": null,
      "expected_outputs": [],
      "extraction_status": "CANDIDATE_RULE",
      "grain": "One record per response assessment or clinical classification assessment per time point per visit per subject per assessor per med ical evaluator, Tabulation",
      "keys": [],
      "local_relative_source_path": "SDTMIG v3.4.pdf",
      "normalized_atomic_requirement": "Data in this domain may or may not be collected by means of a standard CRF.",
      "normative_strength": "NON_NORMATIVE",
      "official_url": "https://www.cdisc.org/standards/foundational/sdtmig/sdtmig-v3-4",
      "permitted_variations": [
        "Data in this domain may or may not be collected by means of a standard CRF.",
        "\u2022 Clinical classification instruments usually have a standard CRF for data capture, but also may instead be based on an evaluat or providing response evaluations based on published criteria.",
        "May be any valid number.",
        "The value in RSTESTCD cannot be longer than 8 characters, nor can it start with a number (e.g., \"1TEST\" is not valid).",
        "RSTESTCD cannot contain characters other than letters, numbers, or underscores."
      ],
      "prohibited_behavior": [],
      "required_behavior": null,
      "required_inputs": [],
      "review_status": "CANDIDATE",
      "rule_id": "sdtmig:086988e2bcb10682",
      "rule_type": "CONTROLLED_TERMINOLOGY",
      "scope": {
        "candidate_kind": "controlled_terminology",
        "dataset_scope": [],
        "datasets": [],
        "structure_scope": [],
        "variable_scope": [
          "CDISC01",
          "CPS0102",
          "CRF",
          "DOMAIN",
          "LNKGRP",
          "LNKID",
          "NTRGRESP",
          "ONCRTSCD",
          "OVRLRESP",
          "QSCAT",
          "QSDTC",
          "QSDY",
          "QSLOBXFL",
          "QSORRES",
          "QSSEQ",
          "QSSTRESC",
          "QSSTRESN",
          "QSTEST",
          "QSTESTCD",
          "RSGRPID",
          "RSLNKGRP",
          "RSLNKID",
          "RSREFID",
          "RSSEQ",
          "RSSPID",
          "RSTEST",
          "RSTESTCD",
          "STUDYID",
          "SWLS",
          "SWLS01",
          "SWLS0104",
          "SWLS0105",
          "SYMPTDTR",
          "TEST",
          "TRGRESP",
          "USUBJID",
          "VISITNUM"
        ],
        "variables": [
          "CDISC01",
          "CPS0102",
          "CRF",
          "DOMAIN",
          "LNKGRP",
          "LNKID",
          "NTRGRESP",
          "ONCRTSCD",
          "OVRLRESP",
          "QSCAT",
          "QSDTC",
          "QSDY",
          "QSLOBXFL",
          "QSORRES",
          "QSSEQ",
          "QSSTRESC",
          "QSSTRESN",
          "QSTEST",
          "QSTESTCD",
          "RSGRPID",
          "RSLNKGRP",
          "RSLNKID",
          "RSREFID",
          "RSSEQ",
          "RSSPID",
          "RSTEST",
          "RSTESTCD",
          "STUDYID",
          "SWLS",
          "SWLS01",
          "SWLS0104",
          "SWLS0105",
          "SYMPTDTR",
          "TEST",
          "TRGRESP",
          "USUBJID",
          "VISITNUM"
        ]
      },
      "semantic_reconstruction_status": "CANDIDATE_RECONSTRUCTED",
      "source_hash": "ea4ddbba4a3e10a55bb2f36d5e28d9cfc191090717c2426475279750a7f57021",
      "source_section_classification": "CONTROLLED_TERMINOLOGY",
      "standard_id": "sdtmig",
      "standard_name": "SDTM Implementation Guide",
      "standard_version": "3.4",
      "structure_scope": [],
      "validation_requirement": null,
      "validation_requirements": [],
      "variable_scope": [
        "CDISC01",
        "CPS0102",
        "CRF",
        "DOMAIN",
        "LNKGRP",
        "LNKID",
        "NTRGRESP",
        "ONCRTSCD",
        "OVRLRESP",
        "QSCAT",
        "QSDTC",
        "QSDY",
        "QSLOBXFL",
        "QSORRES",
        "QSSEQ",
        "QSSTRESC",
        "QSSTRESN",
        "QSTEST",
        "QSTESTCD",
        "RSGRPID",
        "RSLNKGRP",
        "RSLNKID",
        "RSREFID",
        "RSSEQ",
        "RSSPID",
        "RSTEST",
        "RSTESTCD",
        "STUDYID",
        "SWLS",
        "SWLS01",
        "SWLS0104",
        "SWLS0105",
        "SYMPTDTR",
        "TEST",
        "TRGRESP",
        "USUBJID",
        "VISITNUM"
      ]
    },
    {
      "applicability_conditions": [
        "For administrations considered given at a point in time (e.g., oral tablet, pre -filled syringe injection), where only an administration date/time is collected, EXSTDTC should be copied to EXENDTC as the standard representation."
      ],
      "classification": "NON_NORMATIVE",
      "classification_status": "RESOLVED",
      "conformance_metadata": null,
      "dataset_scope": [],
      "evidence_locator": {
        "duplicate_locators": [],
        "extraction_timestamp": "2026-08-10T08:11:23+00:00",
        "page": 107,
        "parser_compiler_version": "m3r-1",
        "section": null,
        "source_binding_status": "SOURCE_BOUND",
        "source_excerpt": "CDISC Study Data Tabulation Model Implementation Guide: Human Clinical Trials (3.4 Final) \u00a9 2021 Clinical Data Interchange Standards Consortium, Inc. All rights reserved Page 107 2021-11-29 b. For administrations considered given at a point in time (e.g., oral tablet, pre -filled syringe injection), where only an administration date/time is collected, EXSTDTC should be copied to EXENDTC as the standard representat..."
      },
      "exact_source_excerpt": "CDISC Study Data Tabulation Model Implementation Guide: Human Clinical Trials (3.4 Final) \u00a9 2021 Clinical Data Interchange Standards Consortium, Inc. All rights reserved Page 107 2021-11-29 b. For administrations considered given at a point in time (e.g., oral tablet, pre -filled syringe injection), where only an administration date/time is collected, EXSTDTC should be copied to EXENDTC as the standard representation. 5. Collected exposure data points are to be represented in the Exposure as Collected (EC) domain. When the rel ationship between EC and EX records can be described in RELREC, then it should be defined. EX derivations must be described in the Define -XML document.Additional interventions qualifiers 6. Additional interventions qualifiers a. EX contains medications received; the inclusion of administrations not taken, not given, or missed is under evaluation. Because EX includes only treatments received, --MOOD would generally not be used in EX. b. --DOSTOT is under evaluation for potential deprecation and replacement with a mec hanism to describe total dose over any interval of time (e.g., day, week, month). Sponsors considering use of EXDOSTOT may want to consider using other dose -amount variables (EXDOSE or EXDOSTXT) in combination with frequency (EXDOSFRQ) and timing variables to represent the data. c. When the EC domain is implemented in conjunction with the EX domain, EXVAMT and EXVAMTU would not be used in EX; collected values instead would be represented in ECDOSE and ECDOSU (and ECVAMT and ECVAMTU as needed). d. Any identifier variables, timing variables, or findings general observation-class qualifiers may be added to the EX domain, but the following qualifiers would generally not be used: \u2013PRESP, --OCCUR, --STAT, and --REASND. 6.1.3.2 Exposure as Collected (EC) EC \u2013 Description/Overview An interventions domain that contains information about protocol-specified study treatment administrations, as collected. EC \u2013 Specification ec.xpt, Exposure as Collected \u2014 Interventions. One record per protocol-specified study treatment, collected-dosing interval, per subject, per mood, Tabulation. Variable Name Variable Label Type Controlled Terms, Codelist or Format1 Role CDISC Notes Core STUDYID Study Identifier Char Identifier Unique identifier for a study. Req DOMAIN Domain Abbreviation Char EC Identifier Two-character abbreviation for the domain. Req USUBJID Unique Subject Identifier Char Identifier Identifier used to uniquely identify a subject across all studies for all applications or submissions involving the product. Req ECSEQ Sequence Number Num Identifier Sequence number given to ensure uniqueness of subject records within a domain. May be any valid number. Req ECGRPID Group ID Char Identifier Used to tie together a block of related records in a single domain for a subject. Perm ECREFID Reference ID Char Identifier Internal or external identifier (e.g., kit number, bottle label, vial identifier). Perm ECSPID Sponsor-Defined Identifier Char Identifier Sponsor-defined reference number. May be preprinted on the CRF as an explicit line identifier or defined in the sponsor's operational database. Example: Line number on a CRF page. Perm ECLNKID Link ID Char Identifier Identifier used to link related records across domains. Perm ECLNKGRP Link Group ID Char Identifier Identifier used to link related, grouped records across domains. Perm ECTRT Name of Treatment Char * Topic Name of the intervention treatment known to the subject and/or administrator. Req ECMOOD Mood Char (BRDGMOOD) Record Qualifier Mode or condition of the record specifying whether the intervention (activity) is intended to happen or has happened. Values align with BRIDG pillars (e.g., scheduled context, performed context) and HL7 activity moods (e.g., intent, event). Examples: \"SCHEDULED\", \"PERFORMED\". Perm",
      "excluded_reason": null,
      "expected_outputs": [],
      "extraction_status": "CANDIDATE_RULE",
      "grain": "One record per protocol-specified study treatment, collected-dosing interval, per subject, per mood, Tabulation",
      "keys": [
        "EX"
      ],
      "local_relative_source_path": "SDTMIG v3.4.pdf",
      "normalized_atomic_requirement": "For administrations considered given at a point in time (e.g., oral tablet, pre -filled syringe injection), where only an administration date/time is collected, EXSTDTC should be copied to EXENDTC as the standard representation.",
      "normative_strength": "NON_NORMATIVE",
      "official_url": "https://www.cdisc.org/standards/foundational/sdtmig/sdtmig-v3-4",
      "permitted_variations": [
        "For administrations considered given at a point in time (e.g., oral tablet, pre -filled syringe injection), where only an administration date/time is collected, EXSTDTC should be copied to EXENDTC as the standard representation.",
        "When the rel ationship between EC and EX records can be described in RELREC, then it should be defined.",
        "Sponsors considering use of EXDOSTOT may want to consider using other dose -amount variables (EXDOSE or EXDOSTXT) in combination with frequency (EXDOSFRQ) and timing variables to represent the data.",
        "Any identifier variables, timing variables, or findings general observation-class qualifiers may be added to the EX domain, but the following qualifiers would generally not be used: \u2013PRESP, --OCCUR, --STAT, and --REASND.",
        "May be any valid number.",
        "May be preprinted on the CRF as an explicit line identifier or defined in the sponsor's operational database."
      ],
      "prohibited_behavior": [],
      "required_behavior": null,
      "required_inputs": [],
      "review_status": "CANDIDATE",
      "rule_id": "sdtmig:09843acfe0941564",
      "rule_type": "CONTROLLED_TERMINOLOGY",
      "scope": {
        "candidate_kind": "controlled_terminology",
        "dataset_scope": [],
        "datasets": [],
        "structure_scope": [],
        "variable_scope": [
          "BRDGMOOD",
          "BRIDG",
          "CRF",
          "DOMAIN",
          "DOSTOT",
          "ECDOSE",
          "ECDOSU",
          "ECGRPID",
          "ECLNKGRP",
          "ECLNKID",
          "ECMOOD",
          "ECREFID",
          "ECSEQ",
          "ECSPID",
          "ECTRT",
          "ECVAMT",
          "ECVAMTU",
          "EXDOSE",
          "EXDOSFRQ",
          "EXDOSTOT",
          "EXDOSTXT",
          "EXENDTC",
          "EXSTDTC",
          "EXVAMT",
          "EXVAMTU",
          "HL7",
          "MOOD",
          "OCCUR",
          "PERFORMED",
          "PRESP",
          "REASND",
          "RELREC",
          "SCHEDULED",
          "STAT",
          "STUDYID",
          "USUBJID",
          "XML"
        ],
        "variables": [
          "BRDGMOOD",
          "BRIDG",
          "CRF",
          "DOMAIN",
          "DOSTOT",
          "ECDOSE",
          "ECDOSU",
          "ECGRPID",
          "ECLNKGRP",
          "ECLNKID",
          "ECMOOD",
          "ECREFID",
          "ECSEQ",
          "ECSPID",
          "ECTRT",
          "ECVAMT",
          "ECVAMTU",
          "EXDOSE",
          "EXDOSFRQ",
          "EXDOSTOT",
          "EXDOSTXT",
          "EXENDTC",
          "EXSTDTC",
          "EXVAMT",
          "EXVAMTU",
          "HL7",
          "MOOD",
          "OCCUR",
          "PERFORMED",
          "PRESP",
          "REASND",
          "RELREC",
          "SCHEDULED",
          "STAT",
          "STUDYID",
          "USUBJID",
          "XML"
        ]
      },
      "semantic_reconstruction_status": "CANDIDATE_RECONSTRUCTED",
      "source_hash": "ea4ddbba4a3e10a55bb2f36d5e28d9cfc191090717c2426475279750a7f57021",
      "source_section_classification": "CONTROLLED_TERMINOLOGY",
      "standard_id": "sdtmig",
      "standard_name": "SDTM Implementation Guide",
      "standard_version": "3.4",
      "structure_scope": [],
      "validation_requirement": "EX derivations must be described in the Define -XML document.Additional interventions qualifiers 6.",
      "validation_requirements": [
        "EX derivations must be described in the Define -XML document.Additional interventions qualifiers 6."
      ],
      "variable_scope": [
        "BRDGMOOD",
        "BRIDG",
        "CRF",
        "DOMAIN",
        "DOSTOT",
        "ECDOSE",
        "ECDOSU",
        "ECGRPID",
        "ECLNKGRP",
        "ECLNKID",
        "ECMOOD",
        "ECREFID",
        "ECSEQ",
        "ECSPID",
        "ECTRT",
        "ECVAMT",
        "ECVAMTU",
        "EXDOSE",
        "EXDOSFRQ",
        "EXDOSTOT",
        "EXDOSTXT",
        "EXENDTC",
        "EXSTDTC",
        "EXVAMT",
        "EXVAMTU",
        "HL7",
        "MOOD",
        "OCCUR",
        "PERFORMED",
        "PRESP",
        "REASND",
        "RELREC",
        "SCHEDULED",
        "STAT",
        "STUDYID",
        "USUBJID",
        "XML"
      ]
    },
    {
      "applicability_conditions": [
        "Note that even if the sponsor uses the body system terminology from the standard dictionary, MHBODSYS and MHCAT may differ; MHBODSYS is derived from the coding system, whereas MHCAT is effectively assigned when the investigator records a condition under the prespecified category.",
        "Examples of MHCAT could include \u201cGeneral Medical History\u201c (see above assumption; if \u201cGeneral Medical History\u201d is an MHCAT value, then there should be other MHCAT values), \u201cAllergy Medical History, \u201c and \u201cReproductive Medical History\u201d.",
        "For example, if a gr oup of syndromes reported for a subject were related to a particular disease, then the MHGRPID variable could be populated with the appropriate text.",
        "MHPRESP and MHOCCU R are permissible fields and may be omitted from the dataset if all medical history events were collected as free text.",
        "MHS TAT and MHREASND are permissible fields and may be omitted from the dataset if all medications were collected as free text or if all prespecified conditions had responses in MHOCCUR."
      ],
      "classification": "NON_NORMATIVE",
      "classification_status": "RESOLVED",
      "conformance_metadata": null,
      "dataset_scope": [],
      "evidence_locator": {
        "duplicate_locators": [],
        "extraction_timestamp": "2026-08-10T08:11:23+00:00",
        "page": 173,
        "parser_compiler_version": "m3r-1",
        "section": null,
        "source_binding_status": "SOURCE_BOUND",
        "source_excerpt": "CDISC Study Data Tabulation Model Implementation Guide: Human Clinical Trials (3.4 Final) \u00a9 2021 Clinical Data Interchange Standards Consortium, Inc. All rights reserved Page 173 2021-11-29 c. If the sponsor codes the reported term (MHTERM) using a standard dictionary, then MHDECOD will be populated with the pref erred term derived from the dictionary. The sponsor is expected to provide the dictionary name and ver..."
      },
      "exact_source_excerpt": "CDISC Study Data Tabulation Model Implementation Guide: Human Clinical Trials (3.4 Final) \u00a9 2021 Clinical Data Interchange Standards Consortium, Inc. All rights reserved Page 173 2021-11-29 c. If the sponsor codes the reported term (MHTERM) using a standard dictionary, then MHDECOD will be populated with the pref erred term derived from the dictionary. The sponsor is expected to provide the dictionary name and version used to map the terms utilizing the e xternal codelist element in the Define-XML document. d. MHBODSYS is the system organ class (SOC) from the coding dictionary associated with the adverse event by the sponsor. This value may differ from the primary SOC designated in the coding dictionary's standard hierarchy. e. If a CRF collects medical history by prespecified body systems and the sponsor also codes report ed terms using a standard dictionary, then MHDECOD and MHBODSYS are populated using the standard dictionary. MHCAT and MHSCAT should be used for the prespecified body systems. 3. Additional categorization and grouping a. MHCAT and MHSCAT may be populated with the sponsor's predefined categorization of medical history events, which are often prespecified on the CRF. Note that even if the sponsor uses the body system terminology from the standard dictionary, MHBODSYS and MHCAT may differ; MHBODSYS is derived from the coding system, whereas MHCAT is effectively assigned when the investigator records a condition under the prespecified category. i. This categorization should not group all records (within the MH domain) into one generic group such as \u201cMedical History\u201d or \u201c General Medical History\u201d because this is redundant information with the domain code. If no smaller categorization can be applied, the n it is not necessary to include or populate this variable. ii. Examples of MHCAT could include \u201cGeneral Medical History\u201c (see above assumption; if \u201cGeneral Medical History\u201d is an MHCAT value, then there should be other MHCAT values), \u201cAllergy Medical History, \u201c and \u201cReproductive Medical History\u201d. b. MHGRPID may be used to link (or associate) different records together to form a bloc k of related records at the subject level within the MH domain. It should not be used in place of MHCAT or MHSCAT, which are used to group data across subjects. For example, if a gr oup of syndromes reported for a subject were related to a particular disease, then the MHGRPID variable could be populated with the appropriate text. 4. Prespecified terms; presence or absence of events a. Information on medical history is generally collected in 2 different ways, either by recording free text or using a prespecif ied list of terms. The solicitation of information on specific medical history events may affect the frequency at which they are reported; therefore , the fact that a specific medical history event was solicited may be of interest to reviewers. MHPRESP and MHOCCU R are used together to indicate whether the condition in MHTERM was prespecified and whether it occurred, respectively. A value of \u201cY\u201d in MHPRESP indicates that the term was presp ecified. b. MHOCCUR is used to indicate whether a prespecified medical condition occurred; a value of \"Y\" indicates that the event occurred and \"N\" indicates that it did not. c. If a medical history event was reported using free text, the values of MHPRESP and MHOCCUR should be null. MHPRESP and MHOCCU R are permissible fields and may be omitted from the dataset if all medical history events were collected as free text. d. MHSTAT and MHREASND provide information about prespecified medical history questions for which no response was collected. MHS TAT and MHREASND are permissible fields and may be omitted from the dataset if all medications were collected as free text or if all prespecified conditions had responses in MHOCCUR.",
      "excluded_reason": null,
      "expected_outputs": [],
      "extraction_status": "CANDIDATE_RULE",
      "grain": null,
      "keys": [],
      "local_relative_source_path": "SDTMIG v3.4.pdf",
      "normalized_atomic_requirement": "This value may differ from the primary SOC designated in the coding dictionary's standard hierarchy.",
      "normative_strength": "NON_NORMATIVE",
      "official_url": "https://www.cdisc.org/standards/foundational/sdtmig/sdtmig-v3-4",
      "permitted_variations": [
        "This value may differ from the primary SOC designated in the coding dictionary's standard hierarchy.",
        "MHCAT and MHSCAT should be used for the prespecified body systems.",
        "MHCAT and MHSCAT may be populated with the sponsor's predefined categorization of medical history events, which are often prespecified on the CRF.",
        "Note that even if the sponsor uses the body system terminology from the standard dictionary, MHBODSYS and MHCAT may differ; MHBODSYS is derived from the coding system, whereas MHCAT is effectively assigned when the investigator records a condition under the prespecified category.",
        "This categorization should not group all records (within the MH domain) into one generic group such as \u201cMedical History\u201d or \u201c General Medical History\u201d because this is redundant information with the domain code.",
        "If no smaller categorization can be applied, the n it is not necessary to include or populate this variable.",
        "Examples of MHCAT could include \u201cGeneral Medical History\u201c (see above assumption; if \u201cGeneral Medical History\u201d is an MHCAT value, then there should be other MHCAT values), \u201cAllergy Medical History, \u201c and \u201cReproductive Medical History\u201d.",
        "MHGRPID may be used to link (or associate) different records together to form a bloc k of related records at the subject level within the MH domain.",
        "It should not be used in place of MHCAT or MHSCAT, which are used to group data across subjects.",
        "The solicitation of information on specific medical history events may affect the frequency at which they are reported; therefore , the fact that a specific medical history event was solicited may be of interest to reviewers.",
        "If a medical history event was reported using free text, the values of MHPRESP and MHOCCUR should be null.",
        "MHPRESP and MHOCCU R are permissible fields and may be omitted from the dataset if all medical history events were collected as free text.",
        "MHS TAT and MHREASND are permissible fields and may be omitted from the dataset if all medications were collected as free text or if all prespecified conditions had responses in MHOCCUR."
      ],
      "prohibited_behavior": [],
      "required_behavior": null,
      "required_inputs": [],
      "review_status": "CANDIDATE",
      "rule_id": "sdtmig:09b5cb6e10f82fd9",
      "rule_type": "CONTROLLED_TERMINOLOGY",
      "scope": {
        "candidate_kind": "controlled_terminology",
        "dataset_scope": [],
        "datasets": [],
        "structure_scope": [],
        "variable_scope": [
          "CRF",
          "MHBODSYS",
          "MHCAT",
          "MHDECOD",
          "MHGRPID",
          "MHOCCU",
          "MHOCCUR",
          "MHPRESP",
          "MHREASND",
          "MHS",
          "MHSCAT",
          "MHSTAT",
          "MHTERM",
          "SOC",
          "TAT",
          "XML"
        ],
        "variables": [
          "CRF",
          "MHBODSYS",
          "MHCAT",
          "MHDECOD",
          "MHGRPID",
          "MHOCCU",
          "MHOCCUR",
          "MHPRESP",
          "MHREASND",
          "MHS",
          "MHSCAT",
          "MHSTAT",
          "MHTERM",
          "SOC",
          "TAT",
          "XML"
        ]
      },
      "semantic_reconstruction_status": "CANDIDATE_RECONSTRUCTED",
      "source_hash": "ea4ddbba4a3e10a55bb2f36d5e28d9cfc191090717c2426475279750a7f57021",
      "source_section_classification": "CONTROLLED_TERMINOLOGY",
      "standard_id": "sdtmig",
      "standard_name": "SDTM Implementation Guide",
      "standard_version": "3.4",
      "structure_scope": [],
      "validation_requirement": null,
      "validation_requirements": [],
      "variable_scope": [
        "CRF",
        "MHBODSYS",
        "MHCAT",
        "MHDECOD",
        "MHGRPID",
        "MHOCCU",
        "MHOCCUR",
        "MHPRESP",
        "MHREASND",
        "MHS",
        "MHSCAT",
        "MHSTAT",
        "MHTERM",
        "SOC",
        "TAT",
        "XML"
      ]
    },
    {
      "applicability_conditions": [
        "It is assumed that if the arm and actual arm variables are null, the same reason applies to both arm and actual arm."
      ],
      "classification": "NON_NORMATIVE",
      "classification_status": "RESOLVED",
      "conformance_metadata": null,
      "dataset_scope": [],
      "evidence_locator": {
        "duplicate_locators": [],
        "extraction_timestamp": "2026-08-10T08:11:23+00:00",
        "page": 64,
        "parser_compiler_version": "m3r-1",
        "section": null,
        "source_binding_status": "SOURCE_BOUND",
        "source_excerpt": "CDISC Study Data Tabulation Model Implementation Guide: Human Clinical Trials (3.4 Final) \u00a9 2021 Clinical Data Interchange Standards Consortium, Inc. All rights reserved Page 64 2021-11-29 Variable Name Variable Label Type Controlled Terms, Codelist or Format1 Role CDISC Notes Core ARMCD values would be 20. If the subject was not assigned to a trial arm, ARMCD is null and ARMNRS is populated. With the exception of..."
      },
      "exact_source_excerpt": "CDISC Study Data Tabulation Model Implementation Guide: Human Clinical Trials (3.4 Final) \u00a9 2021 Clinical Data Interchange Standards Consortium, Inc. All rights reserved Page 64 2021-11-29 Variable Name Variable Label Type Controlled Terms, Codelist or Format1 Role CDISC Notes Core ARMCD values would be 20. If the subject was not assigned to a trial arm, ARMCD is null and ARMNRS is populated. With the exception of studies which use multistage arm assignments, must be a value of ARMCD in the Trial Arms dataset. ARM Description of Planned Arm Char * Synonym Qualifier Name of the arm to which the subject was assigned. If the subject was not assigned to an arm, ARM is null and ARMNRS is populated. With the exception of studies which use multistage arm assignments, must be a value of ARM in the Trial Arms dataset. Exp ACTARMCD Actual Arm Code Char * Record Qualifier Code of actual arm. ACTARMCD is limited to 20 characters. It is not subject to the character restrictions that apply to TESTCD. The maximum length of ACTARMCD is longer than for other short variables to accommodate the kind of values that are likely to be needed for crossover trials. With the exception of studies which use multistage arm assignments, must be a value of ARMCD in the Trial Arms dataset. If the subject was not assigned to an arm or followed a course not described by any planned arm, ACTARMCD is null and ARMNRS is populated. Exp ACTARM Description of Actual Arm Char * Synonym Qualifier Description of actual arm. With the exception of studies which use multistage arm assignments, must be a value of ARM in the Trial Arms dataset. If the subject was not assigned to an arm or followed a course not described by any planned arm, ACTARM is null and ARMNRS is populated. Exp ARMNRS Reason Arm and/or Actual Arm is Null Char (ARMNULRS) Record Qualifier A coded reason that arm variables (ARM and ARMCD) and/or actual arm variables (ACTARM and ACTARMCD) are null. Examples: \"SCREEN FAILURE\", \"NOT ASSIGNED\", \"ASSIGNED, NOT TREATED\", \"UNPLANNED TREATMENT\". It is assumed that if the arm and actual arm variables are null, the same reason applies to both arm and actual arm. Exp ACTARMUD Description of Unplanned Actual Arm Char Record Qualifier A description of actual treatment for a subject who did not receive treatment described in a planned trial arm. Exp COUNTRY Country Char Record Qualifier Country of the investigational site in which the subject participated in the trial. Generally represented using ISO 3166-1 Alpha-3. Note that regulatory agency specific requirements (e.g., US FDA) may require other terminologies; in such cases, follow regulatory requirements. Req DMDTC Date/Time of Collection Char ISO 8601 datetime or interval Timing Date/time of demographic data collection. Perm DMDY Study Day of Collection Num Timing Study day of collection measured as integer days. Perm 1In this column, an asterisk (*) indicates that the variable may be subject to controlled terminology. CDISC/NCI codelist values are enclosed in parentheses. 2Food and Drug Administration. Collection of Race and Ethnicity Data in Clinical Trials. US Department of Health and Human Services;2016. Accessed January 8, 2020. https://www.fda.gov/downloads/regulatoryinformation/guidances/ucm126396.pdf)",
      "excluded_reason": null,
      "expected_outputs": [],
      "extraction_status": "CANDIDATE_RULE",
      "grain": null,
      "keys": [],
      "local_relative_source_path": "SDTMIG v3.4.pdf",
      "normalized_atomic_requirement": "With the exception of studies which use multistage arm assignments, must be a value of ARMCD in the Trial Arms dataset.",
      "normative_strength": "NON_NORMATIVE",
      "official_url": "https://www.cdisc.org/standards/foundational/sdtmig/sdtmig-v3-4",
      "permitted_variations": [
        "Note that regulatory agency specific requirements (e.g., US FDA) may require other terminologies; in such cases, follow regulatory requirements.",
        "Perm 1In this column, an asterisk (*) indicates that the variable may be subject to controlled terminology."
      ],
      "prohibited_behavior": [],
      "required_behavior": null,
      "required_inputs": [],
      "review_status": "CANDIDATE",
      "rule_id": "sdtmig:0aaf5663ab6afe8d",
      "rule_type": "CONTROLLED_TERMINOLOGY",
      "scope": {
        "candidate_kind": "controlled_terminology",
        "dataset_scope": [],
        "datasets": [],
        "structure_scope": [],
        "variable_scope": [
          "ACTARM",
          "ACTARMCD",
          "ACTARMUD",
          "ARM",
          "ARMCD",
          "ARMNRS",
          "ARMNULRS",
          "ASSIGNED",
          "COUNTRY",
          "DMDTC",
          "DMDY",
          "FAILURE",
          "FDA",
          "ISO",
          "NCI",
          "NOT",
          "SCREEN",
          "TESTCD",
          "TREATED",
          "TREATMENT",
          "UNPLANNED"
        ],
        "variables": [
          "ACTARM",
          "ACTARMCD",
          "ACTARMUD",
          "ARM",
          "ARMCD",
          "ARMNRS",
          "ARMNULRS",
          "ASSIGNED",
          "COUNTRY",
          "DMDTC",
          "DMDY",
          "FAILURE",
          "FDA",
          "ISO",
          "NCI",
          "NOT",
          "SCREEN",
          "TESTCD",
          "TREATED",
          "TREATMENT",
          "UNPLANNED"
        ]
      },
      "semantic_reconstruction_status": "CANDIDATE_RECONSTRUCTED",
      "source_hash": "ea4ddbba4a3e10a55bb2f36d5e28d9cfc191090717c2426475279750a7f57021",
      "source_section_classification": "CONTROLLED_TERMINOLOGY",
      "standard_id": "sdtmig",
      "standard_name": "SDTM Implementation Guide",
      "standard_version": "3.4",
      "structure_scope": [],
      "validation_requirement": "With the exception of studies which use multistage arm assignments, must be a value of ARMCD in the Trial Arms dataset.",
      "validation_requirements": [
        "With the exception of studies which use multistage arm assignments, must be a value of ARMCD in the Trial Arms dataset.",
        "With the exception of studies which use multistage arm assignments, must be a value of ARM in the Trial Arms dataset."
      ],
      "variable_scope": [
        "ACTARM",
        "ACTARMCD",
        "ACTARMUD",
        "ARM",
        "ARMCD",
        "ARMNRS",
        "ARMNULRS",
        "ASSIGNED",
        "COUNTRY",
        "DMDTC",
        "DMDY",
        "FAILURE",
        "FDA",
        "ISO",
        "NCI",
        "NOT",
        "SCREEN",
        "TESTCD",
        "TREATED",
        "TREATMENT",
        "UNPLANNED"
      ]
    },
    {
      "applicability_conditions": [],
      "classification": "NON_NORMATIVE",
      "classification_status": "RESOLVED",
      "conformance_metadata": null,
      "dataset_scope": [],
      "evidence_locator": {
        "duplicate_locators": [],
        "extraction_timestamp": "2026-08-10T08:11:23+00:00",
        "page": 154,
        "parser_compiler_version": "m3r-1",
        "section": null,
        "source_binding_status": "SOURCE_BOUND",
        "source_excerpt": "The cause of the fracture and whether there were complications were represented as supplemental qualifiers. suppmh.xpt Row STUDYID RDOMAIN USUBJID IDVAR IDVARVAL QNAM QLABEL QVAL QORIG QEVAL 1 ABC MH 001-001 MHSEQ 1 MHCAUSE Cause of Event OTHER TRAUMA CRF 2 ABC MH 001-001 MHSEQ 1 MHCPLIND Complications Indicator Y CRF The subject had 2 on-study fractures. Row 1: Shows the subject's first on-study fracture. Althoug..."
      },
      "exact_source_excerpt": "The cause of the fracture and whether there were complications were represented as supplemental qualifiers. suppmh.xpt Row STUDYID RDOMAIN USUBJID IDVAR IDVARVAL QNAM QLABEL QVAL QORIG QEVAL 1 ABC MH 001-001 MHSEQ 1 MHCAUSE Cause of Event OTHER TRAUMA CRF 2 ABC MH 001-001 MHSEQ 1 MHCPLIND Complications Indicator Y CRF The subject had 2 on-study fractures. Row 1: Shows the subject's first on-study fracture. Although it healed normally (as indicated by the lack of complications, supplemental qualifier CECPLIND = \"N\"), it required additional treatment, as indicated by CECONTRT = \"Y\". Rows 2-3: Show the subject's second fracture and its associated complication. The 2 events were linked using CEGRPID. ce.xpt Row STUDYID DOMAIN USUBJID CESEQ CEGRPID CESPID CETERM CECAT CESCAT CEPRESP CEOCCUR CELOC CELAT CECONTRT CEDTC CESTDTC 1 ABC CE ABC -US- 701-002 1 CE1 Fracture FRACTURE- RELATED EVENTS Y Y HUMERUS RIGHT Y 2006- 07-09 2006-07- 03 2 ABC CE ABC -US- 701-002 2 1 CE2 Fracture FRACTURE- RELATED EVENTS Y Y FIBULA LEFT N 2006- 10-23 2006-10- 15 3 ABC CE ABC -US- 701-002 3 1 CE3 Infection of fracture site FRACTURE- RELATED EVENTS COMPLICATIONS Y Y 2006- 10-23",
      "excluded_reason": null,
      "expected_outputs": [],
      "extraction_status": "CANDIDATE_RULE",
      "grain": null,
      "keys": [],
      "local_relative_source_path": "SDTMIG v3.4.pdf",
      "normalized_atomic_requirement": "Although it healed normally (as indicated by the lack of complications, supplemental qualifier CECPLIND = \"N\"), it required additional treatment, as indicated by CECONTRT = \"Y\".",
      "normative_strength": "NON_NORMATIVE",
      "official_url": "https://www.cdisc.org/standards/foundational/sdtmig/sdtmig-v3-4",
      "permitted_variations": [],
      "prohibited_behavior": [],
      "required_behavior": null,
      "required_inputs": [],
      "review_status": "CANDIDATE",
      "rule_id": "sdtmig:0c10855b682eb5bf",
      "rule_type": "OPERATIVE_RULE",
      "scope": {
        "candidate_kind": "prose_requirement",
        "dataset_scope": [],
        "datasets": [],
        "structure_scope": [],
        "variable_scope": [
          "ABC",
          "CE1",
          "CE2",
          "CE3",
          "CECAT",
          "CECONTRT",
          "CECPLIND",
          "CEDTC",
          "CEGRPID",
          "CELAT",
          "CELOC",
          "CEOCCUR",
          "CEPRESP",
          "CESCAT",
          "CESEQ",
          "CESPID",
          "CESTDTC",
          "CETERM",
          "COMPLICATIONS",
          "CRF",
          "DOMAIN",
          "EVENTS",
          "FIBULA",
          "FRACTURE",
          "HUMERUS",
          "IDVAR",
          "IDVARVAL",
          "LEFT",
          "MHCAUSE",
          "MHCPLIND",
          "MHSEQ",
          "OTHER",
          "QEVAL",
          "QLABEL",
          "QNAM",
          "QORIG",
          "QVAL",
          "RDOMAIN",
          "RELATED",
          "RIGHT",
          "STUDYID",
          "TRAUMA",
          "USUBJID"
        ],
        "variables": [
          "ABC",
          "CE1",
          "CE2",
          "CE3",
          "CECAT",
          "CECONTRT",
          "CECPLIND",
          "CEDTC",
          "CEGRPID",
          "CELAT",
          "CELOC",
          "CEOCCUR",
          "CEPRESP",
          "CESCAT",
          "CESEQ",
          "CESPID",
          "CESTDTC",
          "CETERM",
          "COMPLICATIONS",
          "CRF",
          "DOMAIN",
          "EVENTS",
          "FIBULA",
          "FRACTURE",
          "HUMERUS",
          "IDVAR",
          "IDVARVAL",
          "LEFT",
          "MHCAUSE",
          "MHCPLIND",
          "MHSEQ",
          "OTHER",
          "QEVAL",
          "QLABEL",
          "QNAM",
          "QORIG",
          "QVAL",
          "RDOMAIN",
          "RELATED",
          "RIGHT",
          "STUDYID",
          "TRAUMA",
          "USUBJID"
        ]
      },
      "semantic_reconstruction_status": "CANDIDATE_RECONSTRUCTED",
      "source_hash": "ea4ddbba4a3e10a55bb2f36d5e28d9cfc191090717c2426475279750a7f57021",
      "source_section_classification": "OPERATIVE_RULE",
      "standard_id": "sdtmig",
      "standard_name": "SDTM Implementation Guide",
      "standard_version": "3.4",
      "structure_scope": [],
      "validation_requirement": null,
      "validation_requirements": [],
      "variable_scope": [
        "ABC",
        "CE1",
        "CE2",
        "CE3",
        "CECAT",
        "CECONTRT",
        "CECPLIND",
        "CEDTC",
        "CEGRPID",
        "CELAT",
        "CELOC",
        "CEOCCUR",
        "CEPRESP",
        "CESCAT",
        "CESEQ",
        "CESPID",
        "CESTDTC",
        "CETERM",
        "COMPLICATIONS",
        "CRF",
        "DOMAIN",
        "EVENTS",
        "FIBULA",
        "FRACTURE",
        "HUMERUS",
        "IDVAR",
        "IDVARVAL",
        "LEFT",
        "MHCAUSE",
        "MHCPLIND",
        "MHSEQ",
        "OTHER",
        "QEVAL",
        "QLABEL",
        "QNAM",
        "QORIG",
        "QVAL",
        "RDOMAIN",
        "RELATED",
        "RIGHT",
        "STUDYID",
        "TRAUMA",
        "USUBJID"
      ]
    },
    {
      "applicability_conditions": [
        "Perm PRPRESP Pre-specified Char (NY) Variable Qualifier Used when a specific procedure is pre-specified on a CRF.",
        "Perm PROCCUR Occurrence Char (NY) Record Qualifier Used to record whether a prespecified procedure occurred when information about the occurrence of a specific procedure is solicited.",
        "Not populated when PRDOSTXT is populated.",
        "Not populated when PRDOSE is populated."
      ],
      "classification": "NON_NORMATIVE",
      "classification_status": "RESOLVED",
      "conformance_metadata": null,
      "dataset_scope": [],
      "evidence_locator": {
        "duplicate_locators": [],
        "extraction_timestamp": "2026-08-10T08:11:23+00:00",
        "page": 125,
        "parser_compiler_version": "m3r-1",
        "section": null,
        "source_binding_status": "SOURCE_BOUND",
        "source_excerpt": "CDISC Study Data Tabulation Model Implementation Guide: Human Clinical Trials (3.4 Final) \u00a9 2021 Clinical Data Interchange Standards Consortium, Inc. All rights reserved Page 125 2021-11-29 6.1.5 Procedures (PR) PR \u2013 Description/Overview An interventions domain that contains interventional activity intended to have diagnostic, preventive, therapeutic, or palliativ e effects. PR \u2013 Specification pr.xpt, Procedures \u2014..."
      },
      "exact_source_excerpt": "CDISC Study Data Tabulation Model Implementation Guide: Human Clinical Trials (3.4 Final) \u00a9 2021 Clinical Data Interchange Standards Consortium, Inc. All rights reserved Page 125 2021-11-29 6.1.5 Procedures (PR) PR \u2013 Description/Overview An interventions domain that contains interventional activity intended to have diagnostic, preventive, therapeutic, or palliativ e effects. PR \u2013 Specification pr.xpt, Procedures \u2014 Interventions. One record per recorded procedure per occurrence per subject, Tab ulation. Variable Name Variable Label Type Controlled Terms, Codelist or Format1 Role CDISC Notes Core STUDYID Study Identifier Char Identifier Unique identifier for a study. Req DOMAIN Domain Abbreviation Char PR Identifier Two-character abbreviation for the domain. Req USUBJID Unique Subject Identifier Char Identifier Identifier used to uniquely identify a subject across all studies for all applications or submissions involving the product. Req PRSEQ Sequence Number Num Identifier Sequence number given to ensure uniqueness of subject records within a domain. May be any valid number. Req PRGRPID Group ID Char Identifier Used to link together a block of related records within a subject in a domain. Perm PRSPID Sponsor-Defined Identifier Char Identifier Sponsor-defined identifier. Example: preprinted line identifier on a CRF, record identifier defined in the sponsor's operational database. Perm PRLNKID Link ID Char Identifier Used to facilitate identification of relationships between records. Perm PRLNKGRP Link Group ID Char Identifier Used to facilitate identification of relationships between records. Perm PRTRT Reported Name of Procedure Char Topic Name of procedure performed, either preprinted or collected on a CRF. Req PRDECOD Standardized Procedure Name Char (PROCEDUR) Synonym Qualifier Standardized or dictionary-derived name of PRTRT. If the codelist \"PROCEDUR\" is not used, the sponsor is expected to provide the dictionary name and version used to map the terms in the external codelist element in the Define-XML document. If an intervention term does not have a decode value, then PRDECOD will be null. Perm PRCAT Category Char * Grouping Qualifier Used to define a category of procedure values. Perm PRSCAT Subcategory Char * Grouping Qualifier Used to define a further categorization of PRCAT values. Perm PRPRESP Pre-specified Char (NY) Variable Qualifier Used when a specific procedure is pre-specified on a CRF. Values should be \"Y\" or null. Perm PROCCUR Occurrence Char (NY) Record Qualifier Used to record whether a prespecified procedure occurred when information about the occurrence of a specific procedure is solicited. Perm PRINDC Indication Char Record Qualifier Denotes the indication for the procedure (e.g., why the procedure was performed). Perm PRDOSE Dose Num Record Qualifier Amount of PRTRT administered. Not populated when PRDOSTXT is populated. Perm PRDOSTXT Dose Description Char Record Qualifier Dosing information collected in text form. Examples: \"<1\", \"200-400\". Not populated when PRDOSE is populated. Perm PRDOSU Dose Units Char (UNIT) Variable Qualifier Units for PRDOSE, PRDOSTOT, or PRDOSTXT. Perm PRDOSFRM Dose Form Char (FRM) Variable Qualifier Dose form for PRTRT. Perm PRDOSFRQ Dosing Frequency per Interval Char (FREQ) Record Qualifier Usually expressed as the number of doses given per a specific interval. Perm PRDOSRGM Intended Dose Regimen Char Record Qualifier Text description of the intended schedule or regimen for the procedure. Perm PRROUTE Route of Administration Char (ROUTE) Variable Qualifier Route of administration for PRTRT. Perm",
      "excluded_reason": null,
      "expected_outputs": [],
      "extraction_status": "CANDIDATE_RULE",
      "grain": "One record per recorded procedure per occurrence per subject, Tab ulation",
      "keys": [
        "CRF"
      ],
      "local_relative_source_path": "SDTMIG v3.4.pdf",
      "normalized_atomic_requirement": "One record per recorded procedure per occurrence per subject, Tab ulation.",
      "normative_strength": "NON_NORMATIVE",
      "official_url": "https://www.cdisc.org/standards/foundational/sdtmig/sdtmig-v3-4",
      "permitted_variations": [
        "May be any valid number.",
        "Values should be \"Y\" or null."
      ],
      "prohibited_behavior": [],
      "required_behavior": null,
      "required_inputs": [],
      "review_status": "CANDIDATE",
      "rule_id": "sdtmig:0de14420002db24a",
      "rule_type": "CONTROLLED_TERMINOLOGY",
      "scope": {
        "candidate_kind": "controlled_terminology",
        "dataset_scope": [],
        "datasets": [],
        "structure_scope": [],
        "variable_scope": [
          "CRF",
          "DOMAIN",
          "FREQ",
          "FRM",
          "PRCAT",
          "PRDECOD",
          "PRDOSE",
          "PRDOSFRM",
          "PRDOSFRQ",
          "PRDOSRGM",
          "PRDOSTOT",
          "PRDOSTXT",
          "PRDOSU",
          "PRGRPID",
          "PRINDC",
          "PRLNKGRP",
          "PRLNKID",
          "PROCCUR",
          "PROCEDUR",
          "PRPRESP",
          "PRROUTE",
          "PRSCAT",
          "PRSEQ",
          "PRSPID",
          "PRTRT",
          "ROUTE",
          "STUDYID",
          "UNIT",
          "USUBJID",
          "XML"
        ],
        "variables": [
          "CRF",
          "DOMAIN",
          "FREQ",
          "FRM",
          "PRCAT",
          "PRDECOD",
          "PRDOSE",
          "PRDOSFRM",
          "PRDOSFRQ",
          "PRDOSRGM",
          "PRDOSTOT",
          "PRDOSTXT",
          "PRDOSU",
          "PRGRPID",
          "PRINDC",
          "PRLNKGRP",
          "PRLNKID",
          "PROCCUR",
          "PROCEDUR",
          "PRPRESP",
          "PRROUTE",
          "PRSCAT",
          "PRSEQ",
          "PRSPID",
          "PRTRT",
          "ROUTE",
          "STUDYID",
          "UNIT",
          "USUBJID",
          "XML"
        ]
      },
      "semantic_reconstruction_status": "CANDIDATE_RECONSTRUCTED",
      "source_hash": "ea4ddbba4a3e10a55bb2f36d5e28d9cfc191090717c2426475279750a7f57021",
      "source_section_classification": "CONTROLLED_TERMINOLOGY",
      "standard_id": "sdtmig",
      "standard_name": "SDTM Implementation Guide",
      "standard_version": "3.4",
      "structure_scope": [],
      "validation_requirement": null,
      "validation_requirements": [],
      "variable_scope": [
        "CRF",
        "DOMAIN",
        "FREQ",
        "FRM",
        "PRCAT",
        "PRDECOD",
        "PRDOSE",
        "PRDOSFRM",
        "PRDOSFRQ",
        "PRDOSRGM",
        "PRDOSTOT",
        "PRDOSTXT",
        "PRDOSU",
        "PRGRPID",
        "PRINDC",
        "PRLNKGRP",
        "PRLNKID",
        "PROCCUR",
        "PROCEDUR",
        "PRPRESP",
        "PRROUTE",
        "PRSCAT",
        "PRSEQ",
        "PRSPID",
        "PRTRT",
        "ROUTE",
        "STUDYID",
        "UNIT",
        "USUBJID",
        "XML"
      ]
    },
    {
      "applicability_conditions": [],
      "classification": "NON_NORMATIVE",
      "classification_status": "RESOLVED",
      "conformance_metadata": null,
      "dataset_scope": [],
      "evidence_locator": {
        "duplicate_locators": [],
        "extraction_timestamp": "2026-08-10T08:11:23+00:00",
        "page": 32,
        "parser_compiler_version": "m3r-1",
        "section": null,
        "source_binding_status": "SOURCE_BOUND",
        "source_excerpt": "QNAM QLABEL QVAL CMINDOTH Other Indication BROKEN ARM 2. If the sponsor wishes to maintain controlled terminology for CMINDC but will expand the terminology based on values seen in the \"Other, specify\" field, then the value of CMINDC will reflect the sponsor's coding decision and SUPPCM could be used to store the verbatim text. CMINDC FRACTURE"
      },
      "exact_source_excerpt": "QNAM QLABEL QVAL CMINDOTH Other Indication BROKEN ARM 2. If the sponsor wishes to maintain controlled terminology for CMINDC but will expand the terminology based on values seen in the \"Other, specify\" field, then the value of CMINDC will reflect the sponsor's coding decision and SUPPCM could be used to store the verbatim text. CMINDC FRACTURE",
      "excluded_reason": null,
      "expected_outputs": [],
      "extraction_status": "CANDIDATE_RULE",
      "grain": null,
      "keys": [],
      "local_relative_source_path": "SDTMIG v3.4.pdf",
      "normalized_atomic_requirement": "QNAM QLABEL QVAL CMINDOTH Other Indication BROKEN ARM 2. If the sponsor wishes to maintain controlled terminology for CMINDC but will expand the terminology based on values seen in the \"Other, specify\" field, then the value of CMINDC will reflect the sponsor's coding decision and SUPPCM could be used to store the verbatim text. CMINDC FRACTURE",
      "normative_strength": "NON_NORMATIVE",
      "official_url": "https://www.cdisc.org/standards/foundational/sdtmig/sdtmig-v3-4",
      "permitted_variations": [],
      "prohibited_behavior": [],
      "required_behavior": null,
      "required_inputs": [],
      "review_status": "CANDIDATE",
      "rule_id": "sdtmig:0f46a21ec5a927c8",
      "rule_type": "CONTROLLED_TERMINOLOGY",
      "scope": {
        "candidate_kind": "controlled_terminology",
        "dataset_scope": [],
        "datasets": [],
        "structure_scope": [],
        "variable_scope": [
          "ARM",
          "BROKEN",
          "CMINDC",
          "CMINDOTH",
          "FRACTURE",
          "QLABEL",
          "QNAM",
          "QVAL",
          "SUPPCM"
        ],
        "variables": [
          "ARM",
          "BROKEN",
          "CMINDC",
          "CMINDOTH",
          "FRACTURE",
          "QLABEL",
          "QNAM",
          "QVAL",
          "SUPPCM"
        ]
      },
      "semantic_reconstruction_status": "CANDIDATE_RECONSTRUCTED",
      "source_hash": "ea4ddbba4a3e10a55bb2f36d5e28d9cfc191090717c2426475279750a7f57021",
      "source_section_classification": "CONTROLLED_TERMINOLOGY",
      "standard_id": "sdtmig",
      "standard_name": "SDTM Implementation Guide",
      "standard_version": "3.4",
      "structure_scope": [],
      "validation_requirement": null,
      "validation_requirements": [],
      "variable_scope": [
        "ARM",
        "BROKEN",
        "CMINDC",
        "CMINDOTH",
        "FRACTURE",
        "QLABEL",
        "QNAM",
        "QVAL",
        "SUPPCM"
      ]
    },
    {
      "applicability_conditions": [
        "All rights reserved Page 330 2021-11-29 Variable Name Variable Label Type Controlled Terms, Codelist or Format1 Role CDISC Notes Core There are separate codelists used for RSTESTCD where the choice depends on the value of RSCAT.",
        "There are separate codelists used for RSTEST where the choice depends on the value of RSCAT.",
        "There are separate codelists used for RSCAT where the choice depends on whether the related records are about an oncology response criterion or another clinical classification.",
        "Should be null if a result exists in RSORRES.",
        "Used in conjunction with RSSTAT when value is \"NOT DONE\".",
        "This column can be left null when the investigator provides the complete set of data in the domain."
      ],
      "classification": "NON_NORMATIVE",
      "classification_status": "RESOLVED",
      "conformance_metadata": null,
      "dataset_scope": [],
      "evidence_locator": {
        "duplicate_locators": [],
        "extraction_timestamp": "2026-08-10T08:11:23+00:00",
        "page": 330,
        "parser_compiler_version": "m3r-1",
        "section": null,
        "source_binding_status": "SOURCE_BOUND",
        "source_excerpt": "CDISC Study Data Tabulation Model Implementation Guide: Human Clinical Trials (3.4 Final) \u00a9 2021 Clinical Data Interchange Standards Consortium, Inc. All rights reserved Page 330 2021-11-29 Variable Name Variable Label Type Controlled Terms, Codelist or Format1 Role CDISC Notes Core There are separate codelists used for RSTESTCD where the choice depends on the value of RSCAT. Codelist \"ONCRTSCD\" is used for oncolo..."
      },
      "exact_source_excerpt": "CDISC Study Data Tabulation Model Implementation Guide: Human Clinical Trials (3.4 Final) \u00a9 2021 Clinical Data Interchange Standards Consortium, Inc. All rights reserved Page 330 2021-11-29 Variable Name Variable Label Type Controlled Terms, Codelist or Format1 Role CDISC Notes Core There are separate codelists used for RSTESTCD where the choice depends on the value of RSCAT. Codelist \"ONCRTSCD\" is used for oncology response criteria (when RSCAT is a term in codelist \"ONCRSCAT\"). Examples: TRGRESP, \"NTRGRESP, \"OVRLRESP\". For Clinical Classifications (when RSCAT is a term in codelist \"CCCAT\"), QRS Naming Rules apply. These instruments have individual dedicated terminology codelists. RSTEST Assessment Name Char (ONCRTS) Synonym Qualifier Verbatim name of the response assessment. The value in RSTEST cannot be longer than 40 characters. There are separate codelists used for RSTEST where the choice depends on the value of RSCAT. Codelist \"ONCRTS\" is used for oncology response criteria (when RSCAT is a term in codelist \"ONCRSCAT\"). Examples: \"Target Response\", \"Non-target Response\", \"Overall Response\", \"Symptomatic Deterioration\". For Clinical Classifications (when RSCAT is a term in codelist \"CCCAT\"), QRS Naming Rules apply. These instruments have individual dedicated terminology codelists. Req RSCAT Category for Assessment Char (ONCRSCAT)(CCCAT) Grouping Qualifier Used to define a category of related records across subjects. Examples: \"RECIST 1.1\", \"CHILD- PUGH CLASSIFICATION\". There are separate codelists used for RSCAT where the choice depends on whether the related records are about an oncology response criterion or another clinical classification. RSCAT is required for clinical classifications other than oncology response criteria. Exp RSSCAT Subcategory Char Grouping Qualifier Used to define a further categorization of RSCAT values. Perm RSORRES Result or Finding in Original Units Char Result Qualifier Result of the response assessment as originally received, collected, or calculated. Exp RSORRESU Original Units Char (UNIT) Variable Qualifier Unit for RSORRES. Perm RSSTRESC Character Result/Finding in Std Format Char (ONCRSR) Result Qualifier Contains the result value for the response assessment, copied, or derived from RSORRES in a standard format or standard units. RSSTRESC should store all results or findings in character format. For Clinical Classifications, this may be a score. Exp RSSTRESN Numeric Result/Finding in Standard Units Num Result Qualifier Used for continuous or numeric results or findings in standard format; copied in numeric format from -- STRESC. --STRESN should store all numeric test results or findings. For Clinical Classifications, this may be a score. Perm RSSTRESU Standard Units Char (UNIT) Variable Qualifier Standardized units used for RSSTRESC and RSSTRESN. Perm RSSTAT Completion Status Char (ND) Record Qualifier Used to indicate the response assessment was not performed. Should be null if a result exists in RSORRES. Perm RSREASND Reason Not Done Char Record Qualifier Describes why a response assessment was not performed. Examples: \"All target tumors not evaluated\", \"Subject does not have non-target tumors\". Used in conjunction with RSSTAT when value is \"NOT DONE\". Perm RSNAM Vendor Name Char Record Qualifier The name or identifier of the vendor that performed the response assessment. This column can be left null when the investigator provides the complete set of data in the domain. Perm RSMETHOD Method of Test or Examination Char (QRSMTHOD) Record Qualifier Method of the test or examination. Perm RSLOBXFL Last Observation Before Exposure Flag Char (NY) Record Qualifier Operationally derived indicator used to identify the last non-missing value prior to RFXSTDTC. The value should be \"Y\" or null. When a clinical classification is assessed at multiple times, including baseline, RSLOBXFL should be included in the dataset. Perm RSBLFL Baseline Flag Char (NY) Record Qualifier Indicator used to identify a baseline value. Should be \"Y\" or null. Note that --BLFL is retained for backward compatibility. The authoritative baseline for statistical analysis is in an ADaM dataset. Perm RSDRVFL Derived Flag Char (NY) Record Qualifier Used to indicate a derived record (e.g., a record that represents the average of other records such as a computed baseline). Should be \"Y\" or null. Perm",
      "excluded_reason": null,
      "expected_outputs": [],
      "extraction_status": "CANDIDATE_RULE",
      "grain": null,
      "keys": [],
      "local_relative_source_path": "SDTMIG v3.4.pdf",
      "normalized_atomic_requirement": "RSCAT is required for clinical classifications other than oncology response criteria.",
      "normative_strength": "NON_NORMATIVE",
      "official_url": "https://www.cdisc.org/standards/foundational/sdtmig/sdtmig-v3-4",
      "permitted_variations": [
        "The value in RSTEST cannot be longer than 40 characters.",
        "RSSTRESC should store all results or findings in character format.",
        "For Clinical Classifications, this may be a score.",
        "--STRESN should store all numeric test results or findings.",
        "Should be null if a result exists in RSORRES.",
        "This column can be left null when the investigator provides the complete set of data in the domain.",
        "The value should be \"Y\" or null.",
        "When a clinical classification is assessed at multiple times, including baseline, RSLOBXFL should be included in the dataset.",
        "Should be \"Y\" or null."
      ],
      "prohibited_behavior": [],
      "required_behavior": null,
      "required_inputs": [],
      "review_status": "CANDIDATE",
      "rule_id": "sdtmig:102031eab1dff8d0",
      "rule_type": "CONTROLLED_TERMINOLOGY",
      "scope": {
        "candidate_kind": "controlled_terminology",
        "dataset_scope": [],
        "datasets": [],
        "structure_scope": [],
        "variable_scope": [
          "BLFL",
          "CCCAT",
          "CHILD",
          "CLASSIFICATION",
          "DONE",
          "NOT",
          "NTRGRESP",
          "ONCRSCAT",
          "ONCRSR",
          "ONCRTS",
          "ONCRTSCD",
          "OVRLRESP",
          "PUGH",
          "QRS",
          "QRSMTHOD",
          "RECIST",
          "RFXSTDTC",
          "RSBLFL",
          "RSCAT",
          "RSDRVFL",
          "RSLOBXFL",
          "RSMETHOD",
          "RSNAM",
          "RSORRES",
          "RSORRESU",
          "RSREASND",
          "RSSCAT",
          "RSSTAT",
          "RSSTRESC",
          "RSSTRESN",
          "RSSTRESU",
          "RSTEST",
          "RSTESTCD",
          "STRESC",
          "STRESN",
          "TRGRESP",
          "UNIT"
        ],
        "variables": [
          "BLFL",
          "CCCAT",
          "CHILD",
          "CLASSIFICATION",
          "DONE",
          "NOT",
          "NTRGRESP",
          "ONCRSCAT",
          "ONCRSR",
          "ONCRTS",
          "ONCRTSCD",
          "OVRLRESP",
          "PUGH",
          "QRS",
          "QRSMTHOD",
          "RECIST",
          "RFXSTDTC",
          "RSBLFL",
          "RSCAT",
          "RSDRVFL",
          "RSLOBXFL",
          "RSMETHOD",
          "RSNAM",
          "RSORRES",
          "RSORRESU",
          "RSREASND",
          "RSSCAT",
          "RSSTAT",
          "RSSTRESC",
          "RSSTRESN",
          "RSSTRESU",
          "RSTEST",
          "RSTESTCD",
          "STRESC",
          "STRESN",
          "TRGRESP",
          "UNIT"
        ]
      },
      "semantic_reconstruction_status": "CANDIDATE_RECONSTRUCTED",
      "source_hash": "ea4ddbba4a3e10a55bb2f36d5e28d9cfc191090717c2426475279750a7f57021",
      "source_section_classification": "CONTROLLED_TERMINOLOGY",
      "standard_id": "sdtmig",
      "standard_name": "SDTM Implementation Guide",
      "standard_version": "3.4",
      "structure_scope": [],
      "validation_requirement": null,
      "validation_requirements": [],
      "variable_scope": [
        "BLFL",
        "CCCAT",
        "CHILD",
        "CLASSIFICATION",
        "DONE",
        "NOT",
        "NTRGRESP",
        "ONCRSCAT",
        "ONCRSR",
        "ONCRTS",
        "ONCRTSCD",
        "OVRLRESP",
        "PUGH",
        "QRS",
        "QRSMTHOD",
        "RECIST",
        "RFXSTDTC",
        "RSBLFL",
        "RSCAT",
        "RSDRVFL",
        "RSLOBXFL",
        "RSMETHOD",
        "RSNAM",
        "RSORRES",
        "RSORRESU",
        "RSREASND",
        "RSSCAT",
        "RSSTAT",
        "RSSTRESC",
        "RSSTRESN",
        "RSSTRESU",
        "RSTEST",
        "RSTESTCD",
        "STRESC",
        "STRESN",
        "TRGRESP",
        "UNIT"
      ]
    },
    {
      "applicability_conditions": [],
      "classification": "NON_NORMATIVE",
      "classification_status": "RESOLVED",
      "conformance_metadata": null,
      "dataset_scope": [],
      "evidence_locator": {
        "duplicate_locators": [],
        "extraction_timestamp": "2026-08-10T08:11:23+00:00",
        "page": 349,
        "parser_compiler_version": "m3r-1",
        "section": null,
        "source_binding_status": "SOURCE_BOUND",
        "source_excerpt": "12. When additional data are collected about a procedure used for tumor/lesion identification, the data about the procedure are stored in the PR domain; the link between the tumor/lesion identification and the procedure should be recorded using RELREC. 13. Any Identifiers, Timing variables, or Findings general observation class qualifiers may be added to the TU domain, but the following qualifiers would not genera..."
      },
      "exact_source_excerpt": "12. When additional data are collected about a procedure used for tumor/lesion identification, the data about the procedure are stored in the PR domain; the link between the tumor/lesion identification and the procedure should be recorded using RELREC. 13. Any Identifiers, Timing variables, or Findings general observation class qualifiers may be added to the TU domain, but the following qualifiers would not generally be used: --MODIFY, --POS, --BODSYS, -- ORNRLO, --ORNRHI, --STNRLO, --STNRHI, --STNRC, --NRIND, --XFN, --LOINC, --SPEC, -- SPCCND, --FAST, --TOX, --TOXGR, --SEV.",
      "excluded_reason": null,
      "expected_outputs": [],
      "extraction_status": "CANDIDATE_RULE",
      "grain": null,
      "keys": [
        "TU"
      ],
      "local_relative_source_path": "SDTMIG v3.4.pdf",
      "normalized_atomic_requirement": "When additional data are collected about a procedure used for tumor/lesion identification, the data about the procedure are stored in the PR domain; the link between the tumor/lesion identification and the procedure should be recorded using RELREC.",
      "normative_strength": "NON_NORMATIVE",
      "official_url": "https://www.cdisc.org/standards/foundational/sdtmig/sdtmig-v3-4",
      "permitted_variations": [
        "When additional data are collected about a procedure used for tumor/lesion identification, the data about the procedure are stored in the PR domain; the link between the tumor/lesion identification and the procedure should be recorded using RELREC.",
        "Any Identifiers, Timing variables, or Findings general observation class qualifiers may be added to the TU domain, but the following qualifiers would not generally be used: --MODIFY, --POS, --BODSYS, -- ORNRLO, --ORNRHI, --STNRLO, --STNRHI, --STNRC, --NRIND, --XFN, --LOINC, --SPEC, -- SPCCND, --FAST, --TOX, --TOXGR, --SEV."
      ],
      "prohibited_behavior": [],
      "required_behavior": null,
      "required_inputs": [],
      "review_status": "CANDIDATE",
      "rule_id": "sdtmig:13692eaba7c2f0c7",
      "rule_type": "OPERATIVE_RULE",
      "scope": {
        "candidate_kind": "variable_requirement",
        "dataset_scope": [],
        "datasets": [],
        "structure_scope": [],
        "variable_scope": [
          "BODSYS",
          "FAST",
          "LOINC",
          "MODIFY",
          "NRIND",
          "ORNRHI",
          "ORNRLO",
          "POS",
          "RELREC",
          "SEV",
          "SPCCND",
          "SPEC",
          "STNRC",
          "STNRHI",
          "STNRLO",
          "TOX",
          "TOXGR",
          "XFN"
        ],
        "variables": [
          "BODSYS",
          "FAST",
          "LOINC",
          "MODIFY",
          "NRIND",
          "ORNRHI",
          "ORNRLO",
          "POS",
          "RELREC",
          "SEV",
          "SPCCND",
          "SPEC",
          "STNRC",
          "STNRHI",
          "STNRLO",
          "TOX",
          "TOXGR",
          "XFN"
        ]
      },
      "semantic_reconstruction_status": "CANDIDATE_RECONSTRUCTED",
      "source_hash": "ea4ddbba4a3e10a55bb2f36d5e28d9cfc191090717c2426475279750a7f57021",
      "source_section_classification": "OPERATIVE_RULE",
      "standard_id": "sdtmig",
      "standard_name": "SDTM Implementation Guide",
      "standard_version": "3.4",
      "structure_scope": [],
      "validation_requirement": null,
      "validation_requirements": [],
      "variable_scope": [
        "BODSYS",
        "FAST",
        "LOINC",
        "MODIFY",
        "NRIND",
        "ORNRHI",
        "ORNRLO",
        "POS",
        "RELREC",
        "SEV",
        "SPCCND",
        "SPEC",
        "STNRC",
        "STNRHI",
        "STNRLO",
        "TOX",
        "TOXGR",
        "XFN"
      ]
    },
    {
      "applicability_conditions": [
        "ISSTRESC should store all results or findings in character format; if results are numeric, they should also be stored in numeric format in ISSTRESN.",
        "Exp ISSTNRC Reference Range for Char Rslt-Std Units Char Variable Qualifier For normal range values that are character in ordinal scale or if categorical ranges were supplied.",
        "Perm ISNRIND Reference Range Indicator Char (NRIND) Variable Qualifier Indicates where the value falls with respect to reference range defined by ISORNRLO and ISORNRHI, ISSTNRLO and ISSTNRHI, or by ISSTNRC.",
        "Should be null if a result exists in ISORRES.",
        "Used in conjunction with ISSTAT when value is \"NOT DONE\".",
        "The value will be \"N\" if the specimen is not usable, and null if the specimen is usable."
      ],
      "classification": "NON_NORMATIVE",
      "classification_status": "RESOLVED",
      "conformance_metadata": null,
      "dataset_scope": [],
      "evidence_locator": {
        "duplicate_locators": [],
        "extraction_timestamp": "2026-08-10T08:11:23+00:00",
        "page": 230,
        "parser_compiler_version": "m3r-1",
        "section": null,
        "source_binding_status": "SOURCE_BOUND",
        "source_excerpt": "CDISC Study Data Tabulation Model Implementation Guide: Human Clinical Trials (3.4 Final) \u00a9 2021 Clinical Data Interchange Standards Consortium, Inc. All rights reserved Page 230 2021-11-29 Variable Name Variable Label Type Controlled Terms, Codelist or Format1 Role CDISC Notes Core ISORRES Results or Findings in Original Units Char Result Qualifier Result of the measurement or finding as originally received or co..."
      },
      "exact_source_excerpt": "CDISC Study Data Tabulation Model Implementation Guide: Human Clinical Trials (3.4 Final) \u00a9 2021 Clinical Data Interchange Standards Consortium, Inc. All rights reserved Page 230 2021-11-29 Variable Name Variable Label Type Controlled Terms, Codelist or Format1 Role CDISC Notes Core ISORRES Results or Findings in Original Units Char Result Qualifier Result of the measurement or finding as originally received or collected. Exp ISORRESU Original Units Char (UNIT) Variable Qualifier Original units in which the data were collected. The unit for ISORRES. Examples: \"Index Value\", \"gpELISA\", \"unit/mL\". Exp ISORNRLO Reference Range Lower Limit in Orig Unit Char Variable Qualifier Lower end of reference range for continuous measurement in original units. Should be populated only for continuous results. Exp ISORNRHI Reference Range Upper Limit in Orig Unit Char Variable Qualifier Upper end of reference range for continuous measurement in original units. Should be populated only for continuous results. Exp ISSTRESC Character Result/Finding in Std Format Char Result Qualifier Contains the result value for all findings copied or derived from ISORRES, in a standard format or in standard units. ISSTRESC should store all results or findings in character format; if results are numeric, they should also be stored in numeric format in ISSTRESN. Exp ISSTRESN Numeric Results/Findings in Std. Units Num Result Qualifier Used for continuous or numeric results or findings in standard format; copied in numeric format from ISSTRESC. ISSTRESN should store all numeric test results or findings. Exp ISSTRESU Standard Units Char (UNIT) Variable Qualifier Standardized units used for ISSTRESC and ISSTRESN. Examples: \"Index Value\", \"gpELISA\", \"unit/mL\". Exp ISSTNRLO Reference Range Lower Limit-Std Units Num Variable Qualifier Lower end of reference range for continuous measurements for ISSTRESC/ISSTRESN in standardized units. Should be populated only for continuous results. Exp ISSTNRHI Reference Range Upper Limit-Std Units Num Variable Qualifier Upper end of reference range for continuous measurements in standardized units. Should be populated only for continuous results. Exp ISSTNRC Reference Range for Char Rslt-Std Units Char Variable Qualifier For normal range values that are character in ordinal scale or if categorical ranges were supplied. Examples: \"-1 to +1\", \"NEGATIVE TO TRACE\". Perm ISNRIND Reference Range Indicator Char (NRIND) Variable Qualifier Indicates where the value falls with respect to reference range defined by ISORNRLO and ISORNRHI, ISSTNRLO and ISSTNRHI, or by ISSTNRC. Examples: \"NORMAL\", \"ABNORMAL\", \"HIGH\", \"LOW\". Sponsors should specify in the study metadata (Comments column in the Define-XML document) whether ISNRIND refers to the original or standard reference ranges and results. Should not be used to indicate clinical significance. Exp ISSTAT Completion Status Char (ND) Record Qualifier Used to indicate a test was not done. Should be null if a result exists in ISORRES. Perm ISREASND Reason Not Done Char Record Qualifier Describes why a measurement or test was not performed. Used in conjunction with ISSTAT when value is \"NOT DONE\". Perm ISNAM Vendor Name Char Record Qualifier Name or identifier of the laboratory or vendor who provided the test results. Perm ISSPEC Specimen Type Char (SPECTYPE) Record Qualifier Defines the types of specimen used for a measurement. Example: \"SERUM\". Perm ISSPCCND Specimen Condition Char (SPECCOND) Record Qualifier Free or standardized text describing the condition of the specimen. Examples: \"HEMOLYZED\", \"ICTERIC\", \"LIPEMIC\". Perm ISSPCUFL Specimen Usability for the Test Char (NY) Record Qualifier Describes the usability of the specimen for the test. The value will be \"N\" if the specimen is not usable, and null if the specimen is usable. Perm ISMETHOD Method of Test or Examination Char (METHOD) Record Qualifier Method of the test or examination. Examples: \"ELISA\", \"ELISPOT\". Perm ISLOBXFL Last Observation Before Exposure Flag Char (NY) Record Qualifier Operationally derived indicator used to identify the last non-missing value prior to RFXSTDTC. The value should be \"Y\" or null. Perm ISBLFL Baseline Flag Char (NY) Record Qualifier Indicator used to identify a baseline value. Should be \"Y\" or null. Note that ISBLFL is retained for backward compatibility. The authoritative baseline for statistical analysis is in an ADaM dataset. Perm ISDRVFL Derived Flag Char (NY) Record Qualifier Used to indicate a derived record. The value should be \"Y\" or null. Examples of records that might be derived for the submission datasets include those that represent the average of other records, do not come from the CRF, or are not as originally received or collected. If Perm",
      "excluded_reason": null,
      "expected_outputs": [],
      "extraction_status": "CANDIDATE_RULE",
      "grain": null,
      "keys": [],
      "local_relative_source_path": "SDTMIG v3.4.pdf",
      "normalized_atomic_requirement": "Should be populated only for continuous results.",
      "normative_strength": "NON_NORMATIVE",
      "official_url": "https://www.cdisc.org/standards/foundational/sdtmig/sdtmig-v3-4",
      "permitted_variations": [
        "Should be populated only for continuous results.",
        "ISSTRESC should store all results or findings in character format; if results are numeric, they should also be stored in numeric format in ISSTRESN.",
        "ISSTRESN should store all numeric test results or findings.",
        "Sponsors should specify in the study metadata (Comments column in the Define-XML document) whether ISNRIND refers to the original or standard reference ranges and results.",
        "Should not be used to indicate clinical significance.",
        "Should be null if a result exists in ISORRES.",
        "The value should be \"Y\" or null.",
        "Should be \"Y\" or null."
      ],
      "prohibited_behavior": [],
      "required_behavior": null,
      "required_inputs": [],
      "review_status": "CANDIDATE",
      "rule_id": "sdtmig:14077c0075bd32cd",
      "rule_type": "CONTROLLED_TERMINOLOGY",
      "scope": {
        "candidate_kind": "controlled_terminology",
        "dataset_scope": [],
        "datasets": [],
        "structure_scope": [],
        "variable_scope": [
          "ABNORMAL",
          "CRF",
          "DONE",
          "ELISA",
          "ELISPOT",
          "HEMOLYZED",
          "HIGH",
          "ICTERIC",
          "ISBLFL",
          "ISDRVFL",
          "ISLOBXFL",
          "ISMETHOD",
          "ISNAM",
          "ISNRIND",
          "ISORNRHI",
          "ISORNRLO",
          "ISORRES",
          "ISORRESU",
          "ISREASND",
          "ISSPCCND",
          "ISSPCUFL",
          "ISSPEC",
          "ISSTAT",
          "ISSTNRC",
          "ISSTNRHI",
          "ISSTNRLO",
          "ISSTRESC",
          "ISSTRESN",
          "ISSTRESU",
          "LIPEMIC",
          "LOW",
          "METHOD",
          "NEGATIVE",
          "NORMAL",
          "NOT",
          "NRIND",
          "RFXSTDTC",
          "SERUM",
          "SPECCOND",
          "SPECTYPE",
          "TRACE",
          "UNIT",
          "XML"
        ],
        "variables": [
          "ABNORMAL",
          "CRF",
          "DONE",
          "ELISA",
          "ELISPOT",
          "HEMOLYZED",
          "HIGH",
          "ICTERIC",
          "ISBLFL",
          "ISDRVFL",
          "ISLOBXFL",
          "ISMETHOD",
          "ISNAM",
          "ISNRIND",
          "ISORNRHI",
          "ISORNRLO",
          "ISORRES",
          "ISORRESU",
          "ISREASND",
          "ISSPCCND",
          "ISSPCUFL",
          "ISSPEC",
          "ISSTAT",
          "ISSTNRC",
          "ISSTNRHI",
          "ISSTNRLO",
          "ISSTRESC",
          "ISSTRESN",
          "ISSTRESU",
          "LIPEMIC",
          "LOW",
          "METHOD",
          "NEGATIVE",
          "NORMAL",
          "NOT",
          "NRIND",
          "RFXSTDTC",
          "SERUM",
          "SPECCOND",
          "SPECTYPE",
          "TRACE",
          "UNIT",
          "XML"
        ]
      },
      "semantic_reconstruction_status": "CANDIDATE_RECONSTRUCTED",
      "source_hash": "ea4ddbba4a3e10a55bb2f36d5e28d9cfc191090717c2426475279750a7f57021",
      "source_section_classification": "CONTROLLED_TERMINOLOGY",
      "standard_id": "sdtmig",
      "standard_name": "SDTM Implementation Guide",
      "standard_version": "3.4",
      "structure_scope": [],
      "validation_requirement": null,
      "validation_requirements": [],
      "variable_scope": [
        "ABNORMAL",
        "CRF",
        "DONE",
        "ELISA",
        "ELISPOT",
        "HEMOLYZED",
        "HIGH",
        "ICTERIC",
        "ISBLFL",
        "ISDRVFL",
        "ISLOBXFL",
        "ISMETHOD",
        "ISNAM",
        "ISNRIND",
        "ISORNRHI",
        "ISORNRLO",
        "ISORRES",
        "ISORRESU",
        "ISREASND",
        "ISSPCCND",
        "ISSPCUFL",
        "ISSPEC",
        "ISSTAT",
        "ISSTNRC",
        "ISSTNRHI",
        "ISSTNRLO",
        "ISSTRESC",
        "ISSTRESN",
        "ISSTRESU",
        "LIPEMIC",
        "LOW",
        "METHOD",
        "NEGATIVE",
        "NORMAL",
        "NOT",
        "NRIND",
        "RFXSTDTC",
        "SERUM",
        "SPECCOND",
        "SPECTYPE",
        "TRACE",
        "UNIT",
        "XML"
      ]
    },
    {
      "applicability_conditions": [
        "Usually equivalent to date/time when subject was first exposed to study treatment.",
        "See assumption 9 for additional detail on when RFSTDTC may be null.",
        "Usually equivalent to the date/time when subject was determined to have ended the trial, and often equivalent to date/time of last exposure to study treatment.",
        "Exp RFXENDTC Date/Time of Last Study Treatment Char ISO 8601 datetime or interval Record Qualifier Last date/time of exposure to any protocol-specified treatment or therapy, equal to the latest value of EXENDTC (or the latest value of EXSTDTC if EXENDTC was not collected or is missing).",
        "Exp RFCSTDTC Date/Time of First Challenge Agent Admin Char ISO 8601 datetime or interval Record Qualifier Used only when protocol specifies a challenge agent to induce a condition that the investigational treatment is intended to cure, mitigate, treat, or prevent.",
        "Perm RFCENDTC Date/Time of Last Challenge Agent Admin Char ISO 8601 datetime or interval Record Qualifier Used only when protocol specifies a challenge agent to induce a condition that the investigational treatment is intended to cure, mitigate, treat, or prevent.",
        "Equal to the latest value of AGENDTC for the challenge agent (or the latest value of AGSTDTC if AGENDTC was not collected or is missing).",
        "This will be the same as the date of informed consent in the Disposition domain, if that protocol milestone is documented.",
        "Exp RFPENDTC Date/Time of End of Participation Char ISO 8601 datetime or interval Record Qualifier Date/time when subject ended participation or follow-up in a trial, as defined in the protocol, in ISO 8601 character format.",
        "Should be populated even when the death date is unknown.",
        "Not needed if SITEID is equivalent to INVID.",
        "For example, if ARMCD values for a 7-period crossover were constructed using 2-character abbreviations for each treatment and separating hyphens, the length of Exp"
      ],
      "classification": "NON_NORMATIVE",
      "classification_status": "RESOLVED",
      "conformance_metadata": null,
      "dataset_scope": [],
      "evidence_locator": {
        "duplicate_locators": [],
        "extraction_timestamp": "2026-08-10T08:11:23+00:00",
        "page": 63,
        "parser_compiler_version": "m3r-1",
        "section": null,
        "source_binding_status": "SOURCE_BOUND",
        "source_excerpt": "CDISC Study Data Tabulation Model Implementation Guide: Human Clinical Trials (3.4 Final) \u00a9 2021 Clinical Data Interchange Standards Consortium, Inc. All rights reserved Page 63 2021-11-29 Variable Name Variable Label Type Controlled Terms, Codelist or Format1 Role CDISC Notes Core RFSTDTC Subject Reference Start Date/Time Char ISO 8601 datetime or interval Record Qualifier Reference start date/time for the subjec..."
      },
      "exact_source_excerpt": "CDISC Study Data Tabulation Model Implementation Guide: Human Clinical Trials (3.4 Final) \u00a9 2021 Clinical Data Interchange Standards Consortium, Inc. All rights reserved Page 63 2021-11-29 Variable Name Variable Label Type Controlled Terms, Codelist or Format1 Role CDISC Notes Core RFSTDTC Subject Reference Start Date/Time Char ISO 8601 datetime or interval Record Qualifier Reference start date/time for the subject in ISO 8601 character format. Usually equivalent to date/time when subject was first exposed to study treatment. See assumption 9 for additional detail on when RFSTDTC may be null. Exp RFENDTC Subject Reference End Date/Time Char ISO 8601 datetime or interval Record Qualifier Reference end date/time for the subject in ISO 8601 character format. Usually equivalent to the date/time when subject was determined to have ended the trial, and often equivalent to date/time of last exposure to study treatment. Required for all randomized subjects; null for screen failures or unassigned subjects. Exp RFXSTDTC Date/Time of First Study Treatment Char ISO 8601 datetime or interval Record Qualifier First date/time of exposure to any protocol-specified treatment or therapy, equal to the earliest value of EXSTDTC. Exp RFXENDTC Date/Time of Last Study Treatment Char ISO 8601 datetime or interval Record Qualifier Last date/time of exposure to any protocol-specified treatment or therapy, equal to the latest value of EXENDTC (or the latest value of EXSTDTC if EXENDTC was not collected or is missing). Exp RFCSTDTC Date/Time of First Challenge Agent Admin Char ISO 8601 datetime or interval Record Qualifier Used only when protocol specifies a challenge agent to induce a condition that the investigational treatment is intended to cure, mitigate, treat, or prevent. Equal to the earliest value of AGSTDTC for the challenge agent. Perm RFCENDTC Date/Time of Last Challenge Agent Admin Char ISO 8601 datetime or interval Record Qualifier Used only when protocol specifies a challenge agent to induce a condition that the investigational treatment is intended to cure, mitigate, treat, or prevent. Equal to the latest value of AGENDTC for the challenge agent (or the latest value of AGSTDTC if AGENDTC was not collected or is missing). Perm RFICDTC Date/Time of Informed Consent Char ISO 8601 datetime or interval Record Qualifier Date/time of informed consent in ISO 8601 character format. This will be the same as the date of informed consent in the Disposition domain, if that protocol milestone is documented. Would be null only in studies not collecting the date of informed consent. Exp RFPENDTC Date/Time of End of Participation Char ISO 8601 datetime or interval Record Qualifier Date/time when subject ended participation or follow-up in a trial, as defined in the protocol, in ISO 8601 character format. Should correspond to the last known date of contact. Examples include completion date, withdrawal date, last follow-up, date recorded for lost to follow up, and death date. Exp DTHDTC Date/Time of Death Char ISO 8601 datetime or interval Record Qualifier Date/time of death for any subject who died, in ISO 8601 format. Should represent the date/time that is captured in the clinical-trial database. Exp DTHFL Subject Death Flag Char (NY) Record Qualifier Indicates the subject died. Should be \"Y\" or null. Should be populated even when the death date is unknown. Exp SITEID Study Site Identifier Char * Record Qualifier Unique identifier for a site within a study. Req INVID Investigator Identifier Char Record Qualifier An identifier to describe the Investigator for the study. May be used in addition to SITEID. Not needed if SITEID is equivalent to INVID. Perm INVNAM Investigator Name Char Synonym Qualifier Name of the investigator for a site. Perm BRTHDTC Date/Time of Birth Char ISO 8601 datetime or interval Record Qualifier Date/time of birth of the subject. Perm AGE Age Num Record Qualifier Age expressed in AGEU. May be derived from RFSTDTC and BRTHDTC, but BRTHDTC may not be available in all cases (due to subject privacy concerns). Exp AGEU Age Units Char (AGEU) Variable Qualifier Units associated with AGE. Exp SEX Sex Char (SEX) Record Qualifier Sex of the subject. Req RACE Race Char (RACE) Record Qualifier Race of the subject. Sponsors should refer to the FDA guidance2 regarding the collection of race. See assumption below regarding RACE. Exp ETHNIC Ethnicity Char (ETHNIC) Record Qualifier The ethnicity of the subject. Sponsors should refer to the FDA guidance1 regarding the collection of ethnicity. Perm ARMCD Planned Arm Code Char * Record Qualifier ARMCD is limited to 20 characters. It is not subject to the character restrictions that apply to TESTCD. The maximum length of ARMCD is longer than for other \"short\" variables to accommodate the kind of values that are likely to be needed for crossover trials. For example, if ARMCD values for a 7-period crossover were constructed using 2-character abbreviations for each treatment and separating hyphens, the length of Exp",
      "excluded_reason": null,
      "expected_outputs": [],
      "extraction_status": "CANDIDATE_RULE",
      "grain": null,
      "keys": [],
      "local_relative_source_path": "SDTMIG v3.4.pdf",
      "normalized_atomic_requirement": "See assumption 9 for additional detail on when RFSTDTC may be null.",
      "normative_strength": "NON_NORMATIVE",
      "official_url": "https://www.cdisc.org/standards/foundational/sdtmig/sdtmig-v3-4",
      "permitted_variations": [
        "See assumption 9 for additional detail on when RFSTDTC may be null.",
        "Should correspond to the last known date of contact.",
        "Should represent the date/time that is captured in the clinical-trial database.",
        "Should be \"Y\" or null.",
        "Should be populated even when the death date is unknown.",
        "May be used in addition to SITEID.",
        "May be derived from RFSTDTC and BRTHDTC, but BRTHDTC may not be available in all cases (due to subject privacy concerns).",
        "Sponsors should refer to the FDA guidance2 regarding the collection of race.",
        "Sponsors should refer to the FDA guidance1 regarding the collection of ethnicity."
      ],
      "prohibited_behavior": [],
      "required_behavior": null,
      "required_inputs": [],
      "review_status": "CANDIDATE",
      "rule_id": "sdtmig:15abd78a451f0ed8",
      "rule_type": "CONTROLLED_TERMINOLOGY",
      "scope": {
        "candidate_kind": "controlled_terminology",
        "dataset_scope": [],
        "datasets": [],
        "structure_scope": [],
        "variable_scope": [
          "AGE",
          "AGENDTC",
          "AGEU",
          "AGSTDTC",
          "ARMCD",
          "BRTHDTC",
          "DTHDTC",
          "DTHFL",
          "ETHNIC",
          "EXENDTC",
          "EXSTDTC",
          "FDA",
          "INVID",
          "INVNAM",
          "ISO",
          "RACE",
          "RFCENDTC",
          "RFCSTDTC",
          "RFENDTC",
          "RFICDTC",
          "RFPENDTC",
          "RFSTDTC",
          "RFXENDTC",
          "RFXSTDTC",
          "SEX",
          "SITEID",
          "TESTCD"
        ],
        "variables": [
          "AGE",
          "AGENDTC",
          "AGEU",
          "AGSTDTC",
          "ARMCD",
          "BRTHDTC",
          "DTHDTC",
          "DTHFL",
          "ETHNIC",
          "EXENDTC",
          "EXSTDTC",
          "FDA",
          "INVID",
          "INVNAM",
          "ISO",
          "RACE",
          "RFCENDTC",
          "RFCSTDTC",
          "RFENDTC",
          "RFICDTC",
          "RFPENDTC",
          "RFSTDTC",
          "RFXENDTC",
          "RFXSTDTC",
          "SEX",
          "SITEID",
          "TESTCD"
        ]
      },
      "semantic_reconstruction_status": "CANDIDATE_RECONSTRUCTED",
      "source_hash": "ea4ddbba4a3e10a55bb2f36d5e28d9cfc191090717c2426475279750a7f57021",
      "source_section_classification": "CONTROLLED_TERMINOLOGY",
      "standard_id": "sdtmig",
      "standard_name": "SDTM Implementation Guide",
      "standard_version": "3.4",
      "structure_scope": [],
      "validation_requirement": null,
      "validation_requirements": [],
      "variable_scope": [
        "AGE",
        "AGENDTC",
        "AGEU",
        "AGSTDTC",
        "ARMCD",
        "BRTHDTC",
        "DTHDTC",
        "DTHFL",
        "ETHNIC",
        "EXENDTC",
        "EXSTDTC",
        "FDA",
        "INVID",
        "INVNAM",
        "ISO",
        "RACE",
        "RFCENDTC",
        "RFCSTDTC",
        "RFENDTC",
        "RFICDTC",
        "RFPENDTC",
        "RFSTDTC",
        "RFXENDTC",
        "RFXSTDTC",
        "SEX",
        "SITEID",
        "TESTCD"
      ]
    },
    {
      "applicability_conditions": [
        "Req --TESTCD Short Name of Measurement, Test or Exam Char * Topic Short character value for --TEST used as a column name when converting a dataset from a vertical format to a horizontal format.",
        "--STRESC should store all results or findings in character format; if results are numeric, they should also be stored in numeric format in --STRESN.",
        "For example, if various tests have results \"NONE\", \"NEG\", and \"NEGATIVE\" in --ORRES, and these results effectively have the same meaning, they could be represented in standard format in --STRESC as \"NEGATIVE\"."
      ],
      "classification": "NON_NORMATIVE",
      "classification_status": "RESOLVED",
      "conformance_metadata": null,
      "dataset_scope": [],
      "evidence_locator": {
        "duplicate_locators": [],
        "extraction_timestamp": "2026-08-10T08:11:23+00:00",
        "page": 286,
        "parser_compiler_version": "m3r-1",
        "section": null,
        "source_binding_status": "SOURCE_BOUND",
        "source_excerpt": "CDISC Study Data Tabulation Model Implementation Guide: Human Clinical Trials (3.4 Final) \u00a9 2021 Clinical Data Interchange Standards Consortium, Inc. All rights reserved Page 286 2021-11-29 --.xpt, Body System-Based Morphology/Physiology \u2014 Findings, Version 3.3. One record per finding per visit per subject, Tabulation. Variable Name Variable Label Type Controlled Terms, Codelist or Format1 Role CDISC Notes Core ST..."
      },
      "exact_source_excerpt": "CDISC Study Data Tabulation Model Implementation Guide: Human Clinical Trials (3.4 Final) \u00a9 2021 Clinical Data Interchange Standards Consortium, Inc. All rights reserved Page 286 2021-11-29 --.xpt, Body System-Based Morphology/Physiology \u2014 Findings, Version 3.3. One record per finding per visit per subject, Tabulation. Variable Name Variable Label Type Controlled Terms, Codelist or Format1 Role CDISC Notes Core STUDYID Study Identifier Char Identifier Unique identifier for a study. Req DOMAIN Domain Abbreviation Char -- Identifier Two-character abbreviation for the domain. Req USUBJID Unique Subject Identifier Char Identifier Identifier used to uniquely identify a subject across all studies for all applications or submissions involving the product. Req --SEQ Sequence Number Num Identifier Sequence number to ensure uniqueness of records within a dataset for a subject (or within a parameter, in the case of the Trial Summary domain). May be any valid number (including decimals) and does not have to start at 1. Req --TESTCD Short Name of Measurement, Test or Exam Char * Topic Short character value for --TEST used as a column name when converting a dataset from a vertical format to a horizontal format. The short value can be up to 8 characters. Subject to Domain-specific test code controlled terminology. Req --TEST Name of Measurement, Test or Examination Char * Synonym Qualifier Long name for --TESTCD. Subject to Domain-specific test code controlled terminology. Req --ORRES Result or Finding in Original Units Char Result Qualifier Result of the measurement or finding as originally received or collected. Exp --STRESC Result or Finding in Standard Format Char Result Qualifier Contains the result value for all findings, copied or derived from --ORRES in a standard format or in standard units. --STRESC should store all results or findings in character format; if results are numeric, they should also be stored in numeric format in --STRESN. For example, if various tests have results \"NONE\", \"NEG\", and \"NEGATIVE\" in --ORRES, and these results effectively have the same meaning, they could be represented in standard format in --STRESC as \"NEGATIVE\". Exp --LOBXFL Last Observation Before Exposure Flag Char Record Qualifier Operationally derived indicator used to identify the last non-missing value prior to RFXSTDTC. The value should be \"Y\" or null. Exp VISITNUM Visit Number Num Timing Clinical encounter number. Numeric version of VISIT, used for sorting. Exp --DTC Date/Time of Collection Char ISO 8601 datetime or interval Timing Collection date and time of an observation. Exp --DY Study Day of Collection Num Timing Study day of the collection, in integer days. The algorithm for calculations must be relative to the sponsor- defined RFSTDTC variable in the Demographics (DM) domain. Exp 1In this column, an asterisk (*) indicates that the variable may be subject to controlled terminology. CDISC/NCI codelist values are enclosed in parentheses.",
      "excluded_reason": null,
      "expected_outputs": [],
      "extraction_status": "CANDIDATE_RULE",
      "grain": "One record per finding per visit per subject, Tabulation",
      "keys": [],
      "local_relative_source_path": "SDTMIG v3.4.pdf",
      "normalized_atomic_requirement": "One record per finding per visit per subject, Tabulation.",
      "normative_strength": "NON_NORMATIVE",
      "official_url": "https://www.cdisc.org/standards/foundational/sdtmig/sdtmig-v3-4",
      "permitted_variations": [
        "May be any valid number (including decimals) and does not have to start at 1.",
        "The short value can be up to 8 characters.",
        "--STRESC should store all results or findings in character format; if results are numeric, they should also be stored in numeric format in --STRESN.",
        "The value should be \"Y\" or null.",
        "Exp 1In this column, an asterisk (*) indicates that the variable may be subject to controlled terminology."
      ],
      "prohibited_behavior": [],
      "required_behavior": null,
      "required_inputs": [],
      "review_status": "CANDIDATE",
      "rule_id": "sdtmig:16353e696e240bf3",
      "rule_type": "CONTROLLED_TERMINOLOGY",
      "scope": {
        "candidate_kind": "controlled_terminology",
        "dataset_scope": [],
        "datasets": [],
        "structure_scope": [],
        "variable_scope": [
          "DOMAIN",
          "DTC",
          "ISO",
          "LOBXFL",
          "NCI",
          "NEG",
          "NEGATIVE",
          "NONE",
          "ORRES",
          "RFSTDTC",
          "RFXSTDTC",
          "SEQ",
          "STRESC",
          "STRESN",
          "STUDYID",
          "TEST",
          "TESTCD",
          "USUBJID",
          "VISIT",
          "VISITNUM"
        ],
        "variables": [
          "DOMAIN",
          "DTC",
          "ISO",
          "LOBXFL",
          "NCI",
          "NEG",
          "NEGATIVE",
          "NONE",
          "ORRES",
          "RFSTDTC",
          "RFXSTDTC",
          "SEQ",
          "STRESC",
          "STRESN",
          "STUDYID",
          "TEST",
          "TESTCD",
          "USUBJID",
          "VISIT",
          "VISITNUM"
        ]
      },
      "semantic_reconstruction_status": "CANDIDATE_RECONSTRUCTED",
      "source_hash": "ea4ddbba4a3e10a55bb2f36d5e28d9cfc191090717c2426475279750a7f57021",
      "source_section_classification": "CONTROLLED_TERMINOLOGY",
      "standard_id": "sdtmig",
      "standard_name": "SDTM Implementation Guide",
      "standard_version": "3.4",
      "structure_scope": [],
      "validation_requirement": "The algorithm for calculations must be relative to the sponsor- defined RFSTDTC variable in the Demographics (DM) domain.",
      "validation_requirements": [
        "The algorithm for calculations must be relative to the sponsor- defined RFSTDTC variable in the Demographics (DM) domain."
      ],
      "variable_scope": [
        "DOMAIN",
        "DTC",
        "ISO",
        "LOBXFL",
        "NCI",
        "NEG",
        "NEGATIVE",
        "NONE",
        "ORRES",
        "RFSTDTC",
        "RFXSTDTC",
        "SEQ",
        "STRESC",
        "STRESN",
        "STUDYID",
        "TEST",
        "TESTCD",
        "USUBJID",
        "VISIT",
        "VISITNUM"
      ]
    },
    {
      "applicability_conditions": [
        "2 A Treatment 2 Trt A First dose of treatment in Element, where drug is Treatment A 5 days after start of Element P5D 3 A Treatment 3 Rest Last dose of previous treatment cycle + 24 hrs 16 days after start of Element and WBC recovers If disease progression, go to Follow-up Epoch 4 A Treatment 4 Trt A First dose of treatment in Element, where drug is Treatment A 5 days after start of Element P5D Note that rows 2 and 4 of this dataset involve the same element (Trt A); thus, TESTRL is the same for both.",
        "The activity that marks a subject's entry into the fourth element in arm A is \"First dose of treatment Element, where drug is Treatment A.\" This is not the subject's very first dose of treatment A, but it is their first dose in this element.",
        "7.3 Schedule for Assessments (TV, TD, and TM) This section contains the Trial Design (TD) datasets that describe: \u2022 The protocol-defined planned schedule of subject encounters at the healthcare facility where the study is being conducted (Section 7.3.1, Trial Visits (TV)) \u2022 The planned schedule of efficacy assessments related to the disease under study (Section 7.3.2, Trial Disease Assessments (TD)) \u2022 The things (events, interventions, or findings) which, if and when they happen, are the occasion for assessments planned in the protocol (Section 7.3.3, Trial Disease Milestones (TM)) The Trial Visits (TV) and TD datasets provide the planned scheduling of assessments to which a subject\u2019s actual visits and disease assessments can be compared."
      ],
      "classification": "NON_NORMATIVE",
      "classification_status": "RESOLVED",
      "conformance_metadata": null,
      "dataset_scope": [],
      "evidence_locator": {
        "duplicate_locators": [],
        "extraction_timestamp": "2026-08-10T08:11:23+00:00",
        "page": 407,
        "parser_compiler_version": "m3r-1",
        "section": null,
        "source_binding_status": "SOURCE_BOUND",
        "source_excerpt": "2 A Treatment 2 Trt A First dose of treatment in Element, where drug is Treatment A 5 days after start of Element P5D 3 A Treatment 3 Rest Last dose of previous treatment cycle + 24 hrs 16 days after start of Element and WBC recovers If disease progression, go to Follow-up Epoch 4 A Treatment 4 Trt A First dose of treatment in Element, where drug is Treatment A 5 days after start of Element P5D Note that rows 2 an..."
      },
      "exact_source_excerpt": "2 A Treatment 2 Trt A First dose of treatment in Element, where drug is Treatment A 5 days after start of Element P5D 3 A Treatment 3 Rest Last dose of previous treatment cycle + 24 hrs 16 days after start of Element and WBC recovers If disease progression, go to Follow-up Epoch 4 A Treatment 4 Trt A First dose of treatment in Element, where drug is Treatment A 5 days after start of Element P5D Note that rows 2 and 4 of this dataset involve the same element (Trt A); thus, TESTRL is the same for both. The activity that marks a subject's entry into the fourth element in arm A is \"First dose of treatment Element, where drug is Treatment A.\" This is not the subject's very first dose of treatment A, but it is their first dose in this element. 7.3 Schedule for Assessments (TV, TD, and TM) This section contains the Trial Design (TD) datasets that describe: \u2022 The protocol-defined planned schedule of subject encounters at the healthcare facility where the study is being conducted (Section 7.3.1, Trial Visits (TV)) \u2022 The planned schedule of efficacy assessments related to the disease under study (Section 7.3.2, Trial Disease Assessments (TD)) \u2022 The things (events, interventions, or findings) which, if and when they happen, are the occasion for assessments planned in the protocol (Section 7.3.3, Trial Disease Milestones (TM)) The Trial Visits (TV) and TD datasets provide the planned scheduling of assessments to which a subject\u2019s actual visits and disease assessments can be compared. 7.3.1 Trial Visits (TV) TV \u2013 Description/Overview A trial design domain that contains the planned order and number of visits in the study within each arm. Visits are defined as \"clinical encounters\" and are described using th e timing variables VISIT, VISITNUM, and VISITDY. Protocols define visits in order to describe assessments and procedures that are to be performed at the visits. TV \u2013 Specification tv.xpt, Trial Visits \u2014 Trial Design. One record per planned Visit per Arm, Tabulation. Variable Name Variable Label Type Controlled Terms, Codelist or Format1 Role CDISC Notes Core STUDYID Study Identifier Char Identifier Unique identifier for a study. Req DOMAIN Domain Abbreviation Char TV Identifier Two-character abbreviation for the domain. Req VISITNUM Visit Number Num Topic Clinical encounter number. Numeric version of VISIT, used for sorting. Req VISIT Visit Name Char Synonym Qualifier Description of clinical encounter. This is often defined in the protocol. Used in addition to VISITNUM and/or VISITDY as a text description of the clinical encounter. Req VISITDY Planned Study Day of Visit Num Timing Planned study day of VISIT. Due to its sequential nature, used for sorting. Perm",
      "excluded_reason": null,
      "expected_outputs": [],
      "extraction_status": "CANDIDATE_RULE",
      "grain": "One record per planned Visit per Arm, Tabulation",
      "keys": [],
      "local_relative_source_path": "SDTMIG v3.4.pdf",
      "normalized_atomic_requirement": "One record per planned Visit per Arm, Tabulation.",
      "normative_strength": "NON_NORMATIVE",
      "official_url": "https://www.cdisc.org/standards/foundational/sdtmig/sdtmig-v3-4",
      "permitted_variations": [
        "7.3 Schedule for Assessments (TV, TD, and TM) This section contains the Trial Design (TD) datasets that describe: \u2022 The protocol-defined planned schedule of subject encounters at the healthcare facility where the study is being conducted (Section 7.3.1, Trial Visits (TV)) \u2022 The planned schedule of efficacy assessments related to the disease under study (Section 7.3.2, Trial Disease Assessments (TD)) \u2022 The things (..."
      ],
      "prohibited_behavior": [],
      "required_behavior": null,
      "required_inputs": [],
      "review_status": "CANDIDATE",
      "rule_id": "sdtmig:1716f9441f619bd8",
      "rule_type": "CONTROLLED_TERMINOLOGY",
      "scope": {
        "candidate_kind": "controlled_terminology",
        "dataset_scope": [],
        "datasets": [],
        "structure_scope": [],
        "variable_scope": [
          "DOMAIN",
          "P5D",
          "STUDYID",
          "TESTRL",
          "VISIT",
          "VISITDY",
          "VISITNUM",
          "WBC"
        ],
        "variables": [
          "DOMAIN",
          "P5D",
          "STUDYID",
          "TESTRL",
          "VISIT",
          "VISITDY",
          "VISITNUM",
          "WBC"
        ]
      },
      "semantic_reconstruction_status": "CANDIDATE_RECONSTRUCTED",
      "source_hash": "ea4ddbba4a3e10a55bb2f36d5e28d9cfc191090717c2426475279750a7f57021",
      "source_section_classification": "CONTROLLED_TERMINOLOGY",
      "standard_id": "sdtmig",
      "standard_name": "SDTM Implementation Guide",
      "standard_version": "3.4",
      "structure_scope": [],
      "validation_requirement": null,
      "validation_requirements": [],
      "variable_scope": [
        "DOMAIN",
        "P5D",
        "STUDYID",
        "TESTRL",
        "VISIT",
        "VISITDY",
        "VISITNUM",
        "WBC"
      ]
    },
    {
      "applicability_conditions": [
        "EGXFN is intended to store the name o f and path to the electrocardiogram (ECG) waveform file when it is submitted.",
        "EGNRIND can be added to indicate where a result falls with respect to reference range defined by EGORNRLO and EGORNRHI.",
        "However, when the \"QTcF Interval, Aggregate\" or \"QTcB Interval, Aggregate\" is received from a central provider or vendor, the value would go into EGORRES and EGDRVFL would be null (see Section 4.1.8.1, Origin Metadata for Variables)."
      ],
      "classification": "NON_NORMATIVE",
      "classification_status": "RESOLVED",
      "conformance_metadata": null,
      "dataset_scope": [],
      "evidence_locator": {
        "duplicate_locators": [],
        "extraction_timestamp": "2026-08-10T08:11:23+00:00",
        "page": 188,
        "parser_compiler_version": "m3r-1",
        "section": null,
        "source_binding_status": "SOURCE_BOUND",
        "source_excerpt": "CDISC Study Data Tabulation Model Implementation Guide: Human Clinical Trials (3.4 Final) \u00a9 2021 Clinical Data Interchange Standards Consortium, Inc. All rights reserved Page 188 2021-11-29 Variable Name Variable Label Type Controlled Terms, Codelist or Format1 Role CDISC Notes Core EGELTM Planned Elapsed Time from Time Point Ref Char ISO 8601 duration Timing Planned elapsed time (in ISO 8601) relative to a fixed..."
      },
      "exact_source_excerpt": "CDISC Study Data Tabulation Model Implementation Guide: Human Clinical Trials (3.4 Final) \u00a9 2021 Clinical Data Interchange Standards Consortium, Inc. All rights reserved Page 188 2021-11-29 Variable Name Variable Label Type Controlled Terms, Codelist or Format1 Role CDISC Notes Core EGELTM Planned Elapsed Time from Time Point Ref Char ISO 8601 duration Timing Planned elapsed time (in ISO 8601) relative to a fixed time point reference (EGTPTREF). Not a clock time or a date time variable. Represented as an ISO 8601 duration. Examples: \"-PT15M\" to represent the period of 15 minutes prior to the reference point indicated by EGTPTREF, \"PT8H\" to represent the period of 8 hours after the reference point indicated by EGTPTREF. Perm EGTPTREF Time Point Reference Char Timing Name of the fixed reference point referred to by EGELTM, EGTPTNUM, and EGTPT. Examples: \"PREVIOUS DOSE\", \"PREVIOUS MEAL\". Perm EGRFTDTC Date/Time of Reference Time Point Char ISO 8601 datetime or interval Timing Date/time for a fixed reference time point defined by EGTPTREF. Perm 1In this column, an asterisk (*) indicates that the variable may be subject to controlled terminology. CDISC/NCI codelist values are enclosed in parentheses. EG \u2013 Assumptions 1. EGREFID is intended to store an identifier (e.g., UUID) for the associated ECG tracing. EGXFN is intended to store the name o f and path to the electrocardiogram (ECG) waveform file when it is submitted. 2. There are separate codelists for tests and results based on regular 10-second ECGs and for tests and results based on Holter monitoring. a. Associations between some ECG abnormality tests and response codelists are described in the ECG codetable (available at https://www.cdisc.org/standards/terminology/controlled-terminology). 3. For non-individual ECG beat data and for aggregate ECG parameter results (e.g., \"QT interval\", \"RR\", \"PR\", \"QRS\"), EGREFID is populated for all unique ECGs, so that submitted SDTM data can be matched to the actual ECGs stored in the ECG warehouse. Therefore, this varia ble is expected for these types of records. 4. For individual-beat parameter results, waveform data will not be stored in the warehouse, so there will be no associated identifier for thes e beats. 5. The method for QT interval correction is specified in the test name by controlled terminology: EGTESTCD = \"QTCFAG\" and EGTEST = \"QTcF Interval, Aggregate\" is used for Fridericia's formula; EGTESTCD = \"QTCBAG\" and EGTEST = \"QTcB Interval, Aggregate\", is used f or Bazett's formula. 6. EGBEATNO is used to differentiate between beats in beat-to-beat records. 7. EGREPNUM is used to differentiate between multiple repetitions of a test within a given time frame. 8. EGNRIND can be added to indicate where a result falls with respect to reference range defined by EGORNRLO and EGORNRHI. Examp les: \"HIGH\", \"LOW\". Clinical significance would be represented as described in Section 4.5.5, Clinical Significance for Findings Observation Class Data, in EGCLSIG (see also EG Example 1). 9. When \"QTcF Interval, Aggregate\" or \"QTcB Interval, Aggregate\" is derived by the sponsor, the derived flag (EGDRVFL) is set to \"Y\". However, when the \"QTcF Interval, Aggregate\" or \"QTcB Interval, Aggregate\" is received from a central provider or vendor, the value would go into EGORRES and EGDRVFL would be null (see Section 4.1.8.1, Origin Metadata for Variables). 10. If this domain is used in conjunction with the ECG QT Correction Model Data (QT) domain: a. For each QT correction method used in the study, values of EGTESTCD and EGTEST are assigned at the study level.",
      "excluded_reason": null,
      "expected_outputs": [],
      "extraction_status": "CANDIDATE_RULE",
      "grain": null,
      "keys": [],
      "local_relative_source_path": "SDTMIG v3.4.pdf",
      "normalized_atomic_requirement": "Perm 1In this column, an asterisk (*) indicates that the variable may be subject to controlled terminology.",
      "normative_strength": "NON_NORMATIVE",
      "official_url": "https://www.cdisc.org/standards/foundational/sdtmig/sdtmig-v3-4",
      "permitted_variations": [
        "Perm 1In this column, an asterisk (*) indicates that the variable may be subject to controlled terminology.",
        "For non-individual ECG beat data and for aggregate ECG parameter results (e.g., \"QT interval\", \"RR\", \"PR\", \"QRS\"), EGREFID is populated for all unique ECGs, so that submitted SDTM data can be matched to the actual ECGs stored in the ECG warehouse.",
        "EGNRIND can be added to indicate where a result falls with respect to reference range defined by EGORNRLO and EGORNRHI.",
        "Clinical significance would be represented as described in Section 4.5.5, Clinical Significance for Findings Observation Class Data, in EGCLSIG (see also EG Example 1)."
      ],
      "prohibited_behavior": [],
      "required_behavior": null,
      "required_inputs": [],
      "review_status": "CANDIDATE",
      "rule_id": "sdtmig:1889c37fd710e45a",
      "rule_type": "CONTROLLED_TERMINOLOGY",
      "scope": {
        "candidate_kind": "controlled_terminology",
        "dataset_scope": [],
        "datasets": [],
        "structure_scope": [],
        "variable_scope": [
          "DOSE",
          "ECG",
          "EGBEATNO",
          "EGCLSIG",
          "EGDRVFL",
          "EGELTM",
          "EGNRIND",
          "EGORNRHI",
          "EGORNRLO",
          "EGORRES",
          "EGREFID",
          "EGREPNUM",
          "EGRFTDTC",
          "EGTEST",
          "EGTESTCD",
          "EGTPT",
          "EGTPTNUM",
          "EGTPTREF",
          "EGXFN",
          "HIGH",
          "ISO",
          "LOW",
          "MEAL",
          "NCI",
          "PREVIOUS",
          "PT15M",
          "PT8H",
          "QRS",
          "QTCBAG",
          "QTCFAG",
          "UUID"
        ],
        "variables": [
          "DOSE",
          "ECG",
          "EGBEATNO",
          "EGCLSIG",
          "EGDRVFL",
          "EGELTM",
          "EGNRIND",
          "EGORNRHI",
          "EGORNRLO",
          "EGORRES",
          "EGREFID",
          "EGREPNUM",
          "EGRFTDTC",
          "EGTEST",
          "EGTESTCD",
          "EGTPT",
          "EGTPTNUM",
          "EGTPTREF",
          "EGXFN",
          "HIGH",
          "ISO",
          "LOW",
          "MEAL",
          "NCI",
          "PREVIOUS",
          "PT15M",
          "PT8H",
          "QRS",
          "QTCBAG",
          "QTCFAG",
          "UUID"
        ]
      },
      "semantic_reconstruction_status": "CANDIDATE_RECONSTRUCTED",
      "source_hash": "ea4ddbba4a3e10a55bb2f36d5e28d9cfc191090717c2426475279750a7f57021",
      "source_section_classification": "CONTROLLED_TERMINOLOGY",
      "standard_id": "sdtmig",
      "standard_name": "SDTM Implementation Guide",
      "standard_version": "3.4",
      "structure_scope": [],
      "validation_requirement": null,
      "validation_requirements": [],
      "variable_scope": [
        "DOSE",
        "ECG",
        "EGBEATNO",
        "EGCLSIG",
        "EGDRVFL",
        "EGELTM",
        "EGNRIND",
        "EGORNRHI",
        "EGORNRLO",
        "EGORRES",
        "EGREFID",
        "EGREPNUM",
        "EGRFTDTC",
        "EGTEST",
        "EGTESTCD",
        "EGTPT",
        "EGTPTNUM",
        "EGTPTREF",
        "EGXFN",
        "HIGH",
        "ISO",
        "LOW",
        "MEAL",
        "NCI",
        "PREVIOUS",
        "PT15M",
        "PT8H",
        "QRS",
        "QTCBAG",
        "QTCFAG",
        "UUID"
      ]
    },
    {
      "applicability_conditions": [],
      "classification": "NON_NORMATIVE",
      "classification_status": "RESOLVED",
      "conformance_metadata": null,
      "dataset_scope": [],
      "evidence_locator": {
        "duplicate_locators": [],
        "extraction_timestamp": "2026-08-10T08:11:23+00:00",
        "page": 20,
        "parser_compiler_version": "m3r-1",
        "section": null,
        "source_binding_status": "SOURCE_BOUND",
        "source_excerpt": "Separate Supplemental Qualifier datasets of the form supp--.xpt are required. See Section 8.4, Relating Non- standard Variable Values to a Parent Domain."
      },
      "exact_source_excerpt": "Separate Supplemental Qualifier datasets of the form supp--.xpt are required. See Section 8.4, Relating Non- standard Variable Values to a Parent Domain.",
      "excluded_reason": null,
      "expected_outputs": [],
      "extraction_status": "CANDIDATE_RULE",
      "grain": null,
      "keys": [],
      "local_relative_source_path": "SDTMIG v3.4.pdf",
      "normalized_atomic_requirement": "Separate Supplemental Qualifier datasets of the form supp--.xpt are required.",
      "normative_strength": "NON_NORMATIVE",
      "official_url": "https://www.cdisc.org/standards/foundational/sdtmig/sdtmig-v3-4",
      "permitted_variations": [],
      "prohibited_behavior": [],
      "required_behavior": null,
      "required_inputs": [],
      "review_status": "CANDIDATE",
      "rule_id": "sdtmig:18d698b038387c8a",
      "rule_type": "OPERATIVE_RULE",
      "scope": {
        "candidate_kind": "variable_requirement",
        "dataset_scope": [],
        "datasets": [],
        "structure_scope": [],
        "variable_scope": [],
        "variables": []
      },
      "semantic_reconstruction_status": "CANDIDATE_RECONSTRUCTED",
      "source_hash": "ea4ddbba4a3e10a55bb2f36d5e28d9cfc191090717c2426475279750a7f57021",
      "source_section_classification": "OPERATIVE_RULE",
      "standard_id": "sdtmig",
      "standard_name": "SDTM Implementation Guide",
      "standard_version": "3.4",
      "structure_scope": [],
      "validation_requirement": null,
      "validation_requirements": [],
      "variable_scope": []
    },
    {
      "applicability_conditions": [
        "If multiple codelists are in use for a single domain, value-level metadata would indicate where each codelist is applicable.",
        "Note that if a variable is either a Variable Qualifier or a Synonym Qualifier, the SDTM includes the qualified variable, but SDTMIG domain specifications do not.",
        "\u2022 CDISC Notes may include any of the following: o A description of what the variable means o Information about how this variable relates to another variable o Rules for when or how the variable should be populated, or how the contents should be formatted o Examples of values that might appear in the variable.",
        "Use of --LNKID and --LNKGRP The definition of --LNKID says that it is \"used to identify a record,\" and the definition of --LNKGRP says that it is \"used to identify a group of records.\" This implies that when setting up a relationship in RELREC, a row where RELTYPE = ONE will have an IDVAR of --LNKID (and not --LNKGRP); a row where RELTYPE = MANY will have an IDVAR of --LNKID (and not --LNKGRP)."
      ],
      "classification": "NON_NORMATIVE",
      "classification_status": "RESOLVED",
      "conformance_metadata": null,
      "dataset_scope": [],
      "evidence_locator": {
        "duplicate_locators": [],
        "extraction_timestamp": "2026-08-10T22:44:22+00:00",
        "page": 10,
        "parser_compiler_version": "m3r-1",
        "section": null,
        "source_binding_status": "SOURCE_BOUND",
        "source_excerpt": "CDISC Study Data Tabulation Model Implementation Guide: Human Clinical Trials (3.4 Final) \u00a9 2021 Clinical Data Interchange Standards Consortium, Inc. All rights reserved Page 10 2021-11-29 \u2022 The controlled terminology might be of a type that would inherently be sponsor-defined. \u2022 The controlled terminology might be of a type that could be standardized, but for which a codelist not yet been developed. \u2022 The control..."
      },
