{
  "rules": [
    {
      "applicability_conditions": [
        "However, values are only necessary when identifying a relationship between datasets."
      ],
      "classification": "NON_NORMATIVE",
      "classification_status": "RESOLVED",
      "conformance_metadata": null,
      "dataset_scope": [],
      "evidence_locator": {
        "duplicate_locators": [],
        "extraction_timestamp": "2026-08-10T08:11:23+00:00",
        "page": 65,
        "parser_compiler_version": "m3r-1",
        "section": null,
        "source_binding_status": "SOURCE_BOUND",
        "source_excerpt": "9 RELTYPE Relationship Type Char Record Qualifier Identifies the hierarchical level of the records in the relationship. Values should be either ONE or MANY. However, values are only necessary when identifying a relationship between datasets."
      },
      "exact_source_excerpt": "9 RELTYPE Relationship Type Char Record Qualifier Identifies the hierarchical level of the records in the relationship. Values should be either ONE or MANY. However, values are only necessary when identifying a relationship between datasets.",
      "excluded_reason": null,
      "expected_outputs": [],
      "extraction_status": "CANDIDATE_RULE",
      "grain": null,
      "keys": [],
      "local_relative_source_path": "SDTM_v2.0.pdf",
      "normalized_atomic_requirement": "Values should be either ONE or MANY.",
      "normative_strength": "NON_NORMATIVE",
      "official_url": "https://www.cdisc.org/system/files/members/standard/foundational/SDTM_v2.0.pdf",
      "permitted_variations": [
        "Values should be either ONE or MANY."
      ],
      "prohibited_behavior": [],
      "required_behavior": null,
      "required_inputs": [],
      "review_status": "CANDIDATE",
      "rule_id": "sdtm-model:032950bb4767ff66",
      "rule_type": "OPERATIVE_RULE",
      "scope": {
        "candidate_kind": "prose_requirement",
        "dataset_scope": [],
        "datasets": [],
        "structure_scope": [],
        "variable_scope": [
          "MANY",
          "ONE",
          "RELTYPE"
        ],
        "variables": [
          "MANY",
          "ONE",
          "RELTYPE"
        ]
      },
      "semantic_reconstruction_status": "CANDIDATE_RECONSTRUCTED",
      "source_hash": "11b6538be0b01812384131d2f42a2d1869ed66052793b98c485d39104801735e",
      "source_section_classification": "OPERATIVE_RULE",
      "standard_id": "sdtm-model",
      "standard_name": "Study Data Tabulation Model",
      "standard_version": "2.0",
      "structure_scope": [],
      "validation_requirement": null,
      "validation_requirements": [],
      "variable_scope": [
        "MANY",
        "ONE",
        "RELTYPE"
      ]
    },
    {
      "applicability_conditions": [
        "2.2 Table Structure Tables in this document include the following variable metadata: \u2022 Variable Name \u2022 Variable Label \u2022 Type (i.e., SAS data type, as described in Section 2.1, Model Concepts and Terms \u2013 Variables) \u2022 Format (an ISO format standard or a description such as \"number-number\") \u2022 Role (as defined in Section 2.1) \u2022 Variable(s) Qualified (for the variables with a role of Variable Qualifier or Synonym Qualifier) \u2022 Usage Restrictions (rules for when a variable can or cannot be used in a particular kind of trial, a particular class, or a particular domain) \u2022 Variable C-code (the concept code associated with a variable definition by the National Cancer Institute Enterprise Vocabulary Services (NCI-EVS)) \u2022 Definition (published as part of CDISC Controlled Terminology through the NCI-EVS) \u2022 Notes (descriptive information not covered elsewhere) \u2022 Examples (sample values or descriptions of kinds of information used to populate the variable) Information on usage restrictions and examples that were in the Description column in SDTM v1.x tables have been moved to the Usage Restrictions and Examples columns.",
        "Other information previously in the Description column has been moved to the Notes column, except that definition-like information has been removed for variables which have approved definitions."
      ],
      "classification": "NON_NORMATIVE",
      "classification_status": "RESOLVED",
      "conformance_metadata": null,
      "dataset_scope": [],
      "evidence_locator": {
        "duplicate_locators": [],
        "extraction_timestamp": "2026-08-10T08:11:23+00:00",
        "page": 10,
        "parser_compiler_version": "m3r-1",
        "section": null,
        "source_binding_status": "SOURCE_BOUND",
        "source_excerpt": "CDISC Study Data Tabulation Model (2.0 Final) \u00a9 2021 Clinical Data Interchange Standards Consortium, Inc. All rights reserved Page 10 2021-11-29 date, datetime); see the Define-XML specification for information about how to represent SDTM types using Define-XML data types. 2.2 Table Structure Tables in this document include the following variable metadata: \u2022 Variable Name \u2022 Variable Label \u2022 Type (i.e., SAS data ty..."
      },
      "exact_source_excerpt": "CDISC Study Data Tabulation Model (2.0 Final) \u00a9 2021 Clinical Data Interchange Standards Consortium, Inc. All rights reserved Page 10 2021-11-29 date, datetime); see the Define-XML specification for information about how to represent SDTM types using Define-XML data types. 2.2 Table Structure Tables in this document include the following variable metadata: \u2022 Variable Name \u2022 Variable Label \u2022 Type (i.e., SAS data type, as described in Section 2.1, Model Concepts and Terms \u2013 Variables) \u2022 Format (an ISO format standard or a description such as \"number-number\") \u2022 Role (as defined in Section 2.1) \u2022 Variable(s) Qualified (for the variables with a role of Variable Qualifier or Synonym Qualifier) \u2022 Usage Restrictions (rules for when a variable can or cannot be used in a particular kind of trial, a particular class, or a particular domain) \u2022 Variable C-code (the concept code associated with a variable definition by the National Cancer Institute Enterprise Vocabulary Services (NCI-EVS)) \u2022 Definition (published as part of CDISC Controlled Terminology through the NCI-EVS) \u2022 Notes (descriptive information not covered elsewhere) \u2022 Examples (sample values or descriptions of kinds of information used to populate the variable) Information on usage restrictions and examples that were in the Description column in SDTM v1.x tables have been moved to the Usage Restrictions and Examples columns. Other information previously in the Description column has been moved to the Notes column, except that definition-like information has been removed for variables which have approved definitions.",
      "excluded_reason": null,
      "expected_outputs": [],
      "extraction_status": "CANDIDATE_RULE",
      "grain": null,
      "keys": [],
      "local_relative_source_path": "SDTM_v2.0.pdf",
      "normalized_atomic_requirement": "CDISC Study Data Tabulation Model (2.0 Final) \u00a9 2021 Clinical Data Interchange Standards Consortium, Inc. All rights reserved Page 10 2021-11-29 date, datetime); see the Define-XML specification for information about how to represent SDTM types using Define-XML data types. 2.2 Table Structure Tables in this document include the following variable metadata...",
      "normative_strength": "NON_NORMATIVE",
      "official_url": "https://www.cdisc.org/system/files/members/standard/foundational/SDTM_v2.0.pdf",
      "permitted_variations": [
        "2.2 Table Structure Tables in this document include the following variable metadata: \u2022 Variable Name \u2022 Variable Label \u2022 Type (i.e., SAS data type, as described in Section 2.1, Model Concepts and Terms \u2013 Variables) \u2022 Format (an ISO format standard or a description such as \"number-number\") \u2022 Role (as defined in Section 2.1) \u2022 Variable(s) Qualified (for the variables with a role of Variable Qualifier or Synonym Quali..."
      ],
      "prohibited_behavior": [],
      "required_behavior": null,
      "required_inputs": [],
      "review_status": "CANDIDATE",
      "rule_id": "sdtm-model:052a2270574d0554",
      "rule_type": "CONTROLLED_TERMINOLOGY",
      "scope": {
        "candidate_kind": "controlled_terminology",
        "dataset_scope": [],
        "datasets": [],
        "structure_scope": [],
        "variable_scope": [
          "EVS",
          "ISO",
          "NCI",
          "SAS",
          "XML"
        ],
        "variables": [
          "EVS",
          "ISO",
          "NCI",
          "SAS",
          "XML"
        ]
      },
      "semantic_reconstruction_status": "CANDIDATE_RECONSTRUCTED",
      "source_hash": "11b6538be0b01812384131d2f42a2d1869ed66052793b98c485d39104801735e",
      "source_section_classification": "CONTROLLED_TERMINOLOGY",
      "standard_id": "sdtm-model",
      "standard_name": "Study Data Tabulation Model",
      "standard_version": "2.0",
      "structure_scope": [],
      "validation_requirement": null,
      "validation_requirements": [],
      "variable_scope": [
        "EVS",
        "ISO",
        "NCI",
        "SAS",
        "XML"
      ]
    },
    {
      "applicability_conditions": [],
      "classification": "NON_NORMATIVE",
      "classification_status": "RESOLVED",
      "conformance_metadata": null,
      "dataset_scope": [],
      "evidence_locator": {
        "duplicate_locators": [],
        "extraction_timestamp": "2026-08-10T08:11:23+00:00",
        "page": 47,
        "parser_compiler_version": "m3r-1",
        "section": null,
        "source_binding_status": "SOURCE_BOUND",
        "source_excerpt": "4 SJSEQ Sequence Number Num Identifier Not in human clinical trials Sequence number to ensure uniqueness within the dataset. Should be assigned to be in a consistent chronological order."
      },
      "exact_source_excerpt": "4 SJSEQ Sequence Number Num Identifier Not in human clinical trials Sequence number to ensure uniqueness within the dataset. Should be assigned to be in a consistent chronological order.",
      "excluded_reason": null,
      "expected_outputs": [],
      "extraction_status": "CANDIDATE_RULE",
      "grain": null,
      "keys": [],
      "local_relative_source_path": "SDTM_v2.0.pdf",
      "normalized_atomic_requirement": "Should be assigned to be in a consistent chronological order.",
      "normative_strength": "NON_NORMATIVE",
      "official_url": "https://www.cdisc.org/system/files/members/standard/foundational/SDTM_v2.0.pdf",
      "permitted_variations": [
        "Should be assigned to be in a consistent chronological order."
      ],
      "prohibited_behavior": [],
      "required_behavior": null,
      "required_inputs": [],
      "review_status": "CANDIDATE",
      "rule_id": "sdtm-model:05d4f4d77aa163ff",
      "rule_type": "OPERATIVE_RULE",
      "scope": {
        "candidate_kind": "prose_requirement",
        "dataset_scope": [],
        "datasets": [],
        "structure_scope": [],
        "variable_scope": [
          "SJSEQ"
        ],
        "variables": [
          "SJSEQ"
        ]
      },
      "semantic_reconstruction_status": "CANDIDATE_RECONSTRUCTED",
      "source_hash": "11b6538be0b01812384131d2f42a2d1869ed66052793b98c485d39104801735e",
      "source_section_classification": "OPERATIVE_RULE",
      "standard_id": "sdtm-model",
      "standard_name": "Study Data Tabulation Model",
      "standard_version": "2.0",
      "structure_scope": [],
      "validation_requirement": null,
      "validation_requirements": [],
      "variable_scope": [
        "SJSEQ"
      ]
    },
    {
      "applicability_conditions": [
        "Usually equivalent to the date/time when a subject was determined to have ended the trial."
      ],
      "classification": "NON_NORMATIVE",
      "classification_status": "RESOLVED",
      "conformance_metadata": null,
      "dataset_scope": [],
      "evidence_locator": {
        "duplicate_locators": [],
        "extraction_timestamp": "2026-08-10T08:11:23+00:00",
        "page": 40,
        "parser_compiler_version": "m3r-1",
        "section": null,
        "source_binding_status": "SOURCE_BOUND",
        "source_excerpt": "6 RFENDTC Subject Reference End Date/Time Char ISO 8601 datetime or interval Record Qualifier C83394 The end date or date and time of the sponsor-defined study reference period, represented in a standardized character format. Usually equivalent to the date/time when a subject was determined to have ended the trial. Often equivalent to either date/time of last exposure to study treatment or date/time of last contac..."
      },
      "exact_source_excerpt": "6 RFENDTC Subject Reference End Date/Time Char ISO 8601 datetime or interval Record Qualifier C83394 The end date or date and time of the sponsor-defined study reference period, represented in a standardized character format. Usually equivalent to the date/time when a subject was determined to have ended the trial. Often equivalent to either date/time of last exposure to study treatment or date/time of last contact with the subject. Required for all randomized subjects;",
      "excluded_reason": null,
      "expected_outputs": [],
      "extraction_status": "CANDIDATE_RULE",
      "grain": null,
      "keys": [],
      "local_relative_source_path": "SDTM_v2.0.pdf",
      "normalized_atomic_requirement": "6 RFENDTC Subject Reference End Date/Time Char ISO 8601 datetime or interval Record Qualifier C83394 The end date or date and time of the sponsor-defined study reference period, represented in a standardized character format. Usually equivalent to the date/time when a subject was determined to have ended the trial. Often equivalent to either date/time of...",
      "normative_strength": "NON_NORMATIVE",
      "official_url": "https://www.cdisc.org/system/files/members/standard/foundational/SDTM_v2.0.pdf",
      "permitted_variations": [],
      "prohibited_behavior": [],
      "required_behavior": null,
      "required_inputs": [],
      "review_status": "CANDIDATE",
      "rule_id": "sdtm-model:08abc74488f04191",
      "rule_type": "OPERATIVE_RULE",
      "scope": {
        "candidate_kind": "prose_requirement",
        "dataset_scope": [],
        "datasets": [],
        "structure_scope": [],
        "variable_scope": [
          "C83394",
          "ISO",
          "RFENDTC"
        ],
        "variables": [
          "C83394",
          "ISO",
          "RFENDTC"
        ]
      },
      "semantic_reconstruction_status": "CANDIDATE_RECONSTRUCTED",
      "source_hash": "11b6538be0b01812384131d2f42a2d1869ed66052793b98c485d39104801735e",
      "source_section_classification": "OPERATIVE_RULE",
      "standard_id": "sdtm-model",
      "standard_name": "Study Data Tabulation Model",
      "standard_version": "2.0",
      "structure_scope": [],
      "validation_requirement": null,
      "validation_requirements": [],
      "variable_scope": [
        "C83394",
        "ISO",
        "RFENDTC"
      ]
    },
    {
      "applicability_conditions": [],
      "classification": "NON_NORMATIVE",
      "classification_status": "RESOLVED",
      "conformance_metadata": null,
      "dataset_scope": [],
      "evidence_locator": {
        "duplicate_locators": [],
        "extraction_timestamp": "2026-08-10T08:11:23+00:00",
        "page": 41,
        "parser_compiler_version": "m3r-1",
        "section": null,
        "source_binding_status": "SOURCE_BOUND",
        "source_excerpt": "12 RFPENDTC Date/Time of End of Participation Char ISO 8601 datetime or interval Record Qualifier Not in nonclinical trials C117453 The date or date and time of last contact with or information about a subject in a trial, represented in a standardized character format. Should correspond to the last known date of contact."
      },
      "exact_source_excerpt": "12 RFPENDTC Date/Time of End of Participation Char ISO 8601 datetime or interval Record Qualifier Not in nonclinical trials C117453 The date or date and time of last contact with or information about a subject in a trial, represented in a standardized character format. Should correspond to the last known date of contact.",
      "excluded_reason": null,
      "expected_outputs": [],
      "extraction_status": "CANDIDATE_RULE",
      "grain": null,
      "keys": [],
      "local_relative_source_path": "SDTM_v2.0.pdf",
      "normalized_atomic_requirement": "Should correspond to the last known date of contact.",
      "normative_strength": "NON_NORMATIVE",
      "official_url": "https://www.cdisc.org/system/files/members/standard/foundational/SDTM_v2.0.pdf",
      "permitted_variations": [
        "Should correspond to the last known date of contact."
      ],
      "prohibited_behavior": [],
      "required_behavior": null,
      "required_inputs": [],
      "review_status": "CANDIDATE",
      "rule_id": "sdtm-model:097a3087f399fe76",
      "rule_type": "OPERATIVE_RULE",
      "scope": {
        "candidate_kind": "prose_requirement",
        "dataset_scope": [],
        "datasets": [],
        "structure_scope": [],
        "variable_scope": [
          "C117453",
          "ISO",
          "RFPENDTC"
        ],
        "variables": [
          "C117453",
          "ISO",
          "RFPENDTC"
        ]
      },
      "semantic_reconstruction_status": "CANDIDATE_RECONSTRUCTED",
      "source_hash": "11b6538be0b01812384131d2f42a2d1869ed66052793b98c485d39104801735e",
      "source_section_classification": "OPERATIVE_RULE",
      "standard_id": "sdtm-model",
      "standard_name": "Study Data Tabulation Model",
      "standard_version": "2.0",
      "structure_scope": [],
      "validation_requirement": null,
      "validation_requirements": [],
      "variable_scope": [
        "C117453",
        "ISO",
        "RFPENDTC"
      ]
    },
    {
      "applicability_conditions": [],
      "classification": "NON_NORMATIVE",
      "classification_status": "RESOLVED",
      "conformance_metadata": null,
      "dataset_scope": [],
      "evidence_locator": {
        "duplicate_locators": [],
        "extraction_timestamp": "2026-08-10T08:11:23+00:00",
        "page": 64,
        "parser_compiler_version": "m3r-1",
        "section": null,
        "source_binding_status": "SOURCE_BOUND",
        "source_excerpt": "4 APID Associated Persons Identifier Char Identifier Identifier for a single associated person, a group of associated persons, or a pool of associated persons. If APID identifies a pool, POOLDEF records must exist for each associated person (see Section 6.3, Pool Definition Dataset, and Section 4, Associated Persons Data)."
      },
      "exact_source_excerpt": "4 APID Associated Persons Identifier Char Identifier Identifier for a single associated person, a group of associated persons, or a pool of associated persons. If APID identifies a pool, POOLDEF records must exist for each associated person (see Section 6.3, Pool Definition Dataset, and Section 4, Associated Persons Data).",
      "excluded_reason": null,
      "expected_outputs": [],
      "extraction_status": "CANDIDATE_RULE",
      "grain": null,
      "keys": [],
      "local_relative_source_path": "SDTM_v2.0.pdf",
      "normalized_atomic_requirement": "If APID identifies a pool, POOLDEF records must exist for each associated person (see Section 6.3, Pool Definition Dataset, and Section 4, Associated Persons Data).",
      "normative_strength": "NON_NORMATIVE",
      "official_url": "https://www.cdisc.org/system/files/members/standard/foundational/SDTM_v2.0.pdf",
      "permitted_variations": [],
      "prohibited_behavior": [],
      "required_behavior": null,
      "required_inputs": [],
      "review_status": "CANDIDATE",
      "rule_id": "sdtm-model:0bbebbd18b8c5802",
      "rule_type": "OPERATIVE_RULE",
      "scope": {
        "candidate_kind": "prose_requirement",
        "dataset_scope": [],
        "datasets": [],
        "structure_scope": [],
        "variable_scope": [
          "APID",
          "POOLDEF"
        ],
        "variables": [
          "APID",
          "POOLDEF"
        ]
      },
      "semantic_reconstruction_status": "CANDIDATE_RECONSTRUCTED",
      "source_hash": "11b6538be0b01812384131d2f42a2d1869ed66052793b98c485d39104801735e",
      "source_section_classification": "OPERATIVE_RULE",
      "standard_id": "sdtm-model",
      "standard_name": "Study Data Tabulation Model",
      "standard_version": "2.0",
      "structure_scope": [],
      "validation_requirement": "If APID identifies a pool, POOLDEF records must exist for each associated person (see Section 6.3, Pool Definition Dataset, and Section 4, Associated Persons Data).",
      "validation_requirements": [
        "If APID identifies a pool, POOLDEF records must exist for each associated person (see Section 6.3, Pool Definition Dataset, and Section 4, Associated Persons Data)."
      ],
      "variable_scope": [
        "APID",
        "POOLDEF"
      ]
    },
    {
      "applicability_conditions": [
        "\"Fed ad libitum\" or \"Restricted Feeding\" when TXPARM is \"FEEDREG\""
      ],
      "classification": "NON_NORMATIVE",
      "classification_status": "RESOLVED",
      "conformance_metadata": null,
      "dataset_scope": [],
      "evidence_locator": {
        "duplicate_locators": [],
        "extraction_timestamp": "2026-08-10T08:11:23+00:00",
        "page": 53,
        "parser_compiler_version": "m3r-1",
        "section": null,
        "source_binding_status": "SOURCE_BOUND",
        "source_excerpt": "8 TXVAL Trial Set Parameter Value Char Result Qualifier Value of the trial set parameter. Some parameters may be subject to controlled terminology. \"Fed ad libitum\" or \"Restricted Feeding\" when TXPARM is \"FEEDREG\""
      },
      "exact_source_excerpt": "8 TXVAL Trial Set Parameter Value Char Result Qualifier Value of the trial set parameter. Some parameters may be subject to controlled terminology. \"Fed ad libitum\" or \"Restricted Feeding\" when TXPARM is \"FEEDREG\"",
      "excluded_reason": null,
      "expected_outputs": [],
      "extraction_status": "CANDIDATE_RULE",
      "grain": null,
      "keys": [],
      "local_relative_source_path": "SDTM_v2.0.pdf",
      "normalized_atomic_requirement": "Some parameters may be subject to controlled terminology.",
      "normative_strength": "NON_NORMATIVE",
      "official_url": "https://www.cdisc.org/system/files/members/standard/foundational/SDTM_v2.0.pdf",
      "permitted_variations": [
        "Some parameters may be subject to controlled terminology."
      ],
      "prohibited_behavior": [],
      "required_behavior": null,
      "required_inputs": [],
      "review_status": "CANDIDATE",
      "rule_id": "sdtm-model:11af70ba2bc5d737",
      "rule_type": "CONTROLLED_TERMINOLOGY",
      "scope": {
        "candidate_kind": "controlled_terminology",
        "dataset_scope": [],
        "datasets": [],
        "structure_scope": [],
        "variable_scope": [
          "FEEDREG",
          "TXPARM",
          "TXVAL"
        ],
        "variables": [
          "FEEDREG",
          "TXPARM",
          "TXVAL"
        ]
      },
      "semantic_reconstruction_status": "CANDIDATE_RECONSTRUCTED",
      "source_hash": "11b6538be0b01812384131d2f42a2d1869ed66052793b98c485d39104801735e",
      "source_section_classification": "CONTROLLED_TERMINOLOGY",
      "standard_id": "sdtm-model",
      "standard_name": "Study Data Tabulation Model",
      "standard_version": "2.0",
      "structure_scope": [],
      "validation_requirement": null,
      "validation_requirements": [],
      "variable_scope": [
        "FEEDREG",
        "TXPARM",
        "TXVAL"
      ]
    },
    {
      "applicability_conditions": [],
      "classification": "NON_NORMATIVE",
      "classification_status": "RESOLVED",
      "conformance_metadata": null,
      "dataset_scope": [],
      "evidence_locator": {
        "duplicate_locators": [],
        "extraction_timestamp": "2026-08-10T08:11:23+00:00",
        "page": 66,
        "parser_compiler_version": "m3r-1",
        "section": null,
        "source_binding_status": "SOURCE_BOUND",
        "source_excerpt": "11 QVAL Data Value Char Result Qualifier Result of, response to, or value associated with QNAM. A value for this column is required; no records can be in a SUPP-- dataset with a null value for QVAL."
      },
      "exact_source_excerpt": "11 QVAL Data Value Char Result Qualifier Result of, response to, or value associated with QNAM. A value for this column is required; no records can be in a SUPP-- dataset with a null value for QVAL.",
      "excluded_reason": null,
      "expected_outputs": [],
      "extraction_status": "CANDIDATE_RULE",
      "grain": null,
      "keys": [],
      "local_relative_source_path": "SDTM_v2.0.pdf",
      "normalized_atomic_requirement": "A value for this column is required; no records can be in a SUPP-- dataset with a null value for QVAL.",
      "normative_strength": "NON_NORMATIVE",
      "official_url": "https://www.cdisc.org/system/files/members/standard/foundational/SDTM_v2.0.pdf",
      "permitted_variations": [
        "A value for this column is required; no records can be in a SUPP-- dataset with a null value for QVAL."
      ],
      "prohibited_behavior": [],
      "required_behavior": null,
      "required_inputs": [],
      "review_status": "CANDIDATE",
      "rule_id": "sdtm-model:189f8b0d85fa5164",
      "rule_type": "OPERATIVE_RULE",
      "scope": {
        "candidate_kind": "prose_requirement",
        "dataset_scope": [],
        "datasets": [],
        "structure_scope": [],
        "variable_scope": [
          "QNAM",
          "QVAL",
          "SUPP"
        ],
        "variables": [
          "QNAM",
          "QVAL",
          "SUPP"
        ]
      },
      "semantic_reconstruction_status": "CANDIDATE_RECONSTRUCTED",
      "source_hash": "11b6538be0b01812384131d2f42a2d1869ed66052793b98c485d39104801735e",
      "source_section_classification": "OPERATIVE_RULE",
      "standard_id": "sdtm-model",
      "standard_name": "Study Data Tabulation Model",
      "standard_version": "2.0",
      "structure_scope": [],
      "validation_requirement": null,
      "validation_requirements": [],
      "variable_scope": [
        "QNAM",
        "QVAL",
        "SUPP"
      ]
    },
    {
      "applicability_conditions": [],
      "classification": "NON_NORMATIVE",
      "classification_status": "RESOLVED",
      "conformance_metadata": null,
      "dataset_scope": [],
      "evidence_locator": {
        "duplicate_locators": [],
        "extraction_timestamp": "2026-08-10T08:11:23+00:00",
        "page": 12,
        "parser_compiler_version": "m3r-1",
        "section": null,
        "source_binding_status": "SOURCE_BOUND",
        "source_excerpt": "6 --SCAT Subcategory Char Grouping Qualifier A further grouping or classification of the category for the topic of the finding, event, or intervention. The category is in --CAT. 7 --PRESP Pre-Specified Char Variable Qualifier --TRT Not in nonclinical trials C82510 An indication that the event or intervention was prospectively stated or detailed on the CRF. Values should be \"Y\" or null. 8 --OCCUR Occurrence Indicat..."
      },
      "exact_source_excerpt": "6 --SCAT Subcategory Char Grouping Qualifier A further grouping or classification of the category for the topic of the finding, event, or intervention. The category is in --CAT. 7 --PRESP Pre-Specified Char Variable Qualifier --TRT Not in nonclinical trials C82510 An indication that the event or intervention was prospectively stated or detailed on the CRF. Values should be \"Y\" or null. 8 --OCCUR Occurrence Indicator Char Record Qualifier C171000 An indication as to whether a prespecified event or intervention has occurred.",
      "excluded_reason": null,
      "expected_outputs": [],
      "extraction_status": "CANDIDATE_RULE",
      "grain": null,
      "keys": [],
      "local_relative_source_path": "SDTM_v2.0.pdf",
      "normalized_atomic_requirement": "Values should be \"Y\" or null.",
      "normative_strength": "NON_NORMATIVE",
      "official_url": "https://www.cdisc.org/system/files/members/standard/foundational/SDTM_v2.0.pdf",
      "permitted_variations": [
        "Values should be \"Y\" or null."
      ],
      "prohibited_behavior": [],
      "required_behavior": null,
      "required_inputs": [],
      "review_status": "CANDIDATE",
      "rule_id": "sdtm-model:1fe768e02c552131",
      "rule_type": "OPERATIVE_RULE",
      "scope": {
        "candidate_kind": "variable_requirement",
        "dataset_scope": [],
        "datasets": [],
        "structure_scope": [],
        "variable_scope": [
          "C171000",
          "C82510",
          "CAT",
          "CRF",
          "OCCUR",
          "PRESP",
          "SCAT",
          "TRT"
        ],
        "variables": [
          "C171000",
          "C82510",
          "CAT",
          "CRF",
          "OCCUR",
          "PRESP",
          "SCAT",
          "TRT"
        ]
      },
      "semantic_reconstruction_status": "CANDIDATE_RECONSTRUCTED",
      "source_hash": "11b6538be0b01812384131d2f42a2d1869ed66052793b98c485d39104801735e",
      "source_section_classification": "OPERATIVE_RULE",
      "standard_id": "sdtm-model",
      "standard_name": "Study Data Tabulation Model",
      "standard_version": "2.0",
      "structure_scope": [],
      "validation_requirement": null,
      "validation_requirements": [],
      "variable_scope": [
        "C171000",
        "C82510",
        "CAT",
        "CRF",
        "OCCUR",
        "PRESP",
        "SCAT",
        "TRT"
      ]
    },
    {
      "applicability_conditions": [],
      "classification": "NON_NORMATIVE",
      "classification_status": "RESOLVED",
      "conformance_metadata": null,
      "dataset_scope": [],
      "evidence_locator": {
        "duplicate_locators": [],
        "extraction_timestamp": "2026-08-10T08:11:23+00:00",
        "page": 60,
        "parser_compiler_version": "m3r-1",
        "section": null,
        "source_binding_status": "SOURCE_BOUND",
        "source_excerpt": "5.1.7 Challenge Agent Characterization The Challenge Agent Characterization dataset allows the sponsor to provide information about challenge agents used in a trial in a structured format. Each record in the Challenge Agent Characterization dataset contains a parameter (a characteristic of the challenge agent) and its value. Challenge Agent Characterization\u2014One Record per Challenge Agent Characterization Parameter..."
      },
      "exact_source_excerpt": "5.1.7 Challenge Agent Characterization The Challenge Agent Characterization dataset allows the sponsor to provide information about challenge agents used in a trial in a structured format. Each record in the Challenge Agent Characterization dataset contains a parameter (a characteristic of the challenge agent) and its value. Challenge Agent Characterization\u2014One Record per Challenge Agent Characterization Parameter Instance # Variable Name Variable Label Type Format Role Variable(s) Qualified Usage Restrictions Variable C-code Definition Notes",
      "excluded_reason": null,
      "expected_outputs": [],
      "extraction_status": "CANDIDATE_RULE",
      "grain": "One Record per Challenge Agent Characterization Parameter Instance # Variable Name Variable Label Type Format Role Variable(s) Qualified Usage Restrictions Variable C-code Definition Notes",
      "keys": [],
      "local_relative_source_path": "SDTM_v2.0.pdf",
      "normalized_atomic_requirement": "Challenge Agent Characterization\u2014One Record per Challenge Agent Characterization Parameter Instance # Variable Name Variable Label Type Format Role Variable(s) Qualified Usage Restrictions Variable C-code Definition Notes",
      "normative_strength": "NON_NORMATIVE",
      "official_url": "https://www.cdisc.org/system/files/members/standard/foundational/SDTM_v2.0.pdf",
      "permitted_variations": [],
      "prohibited_behavior": [],
      "required_behavior": null,
      "required_inputs": [],
      "review_status": "CANDIDATE",
      "rule_id": "sdtm-model:25c1e91f03269189",
      "rule_type": "OPERATIVE_RULE",
      "scope": {
        "candidate_kind": "variable_requirement",
        "dataset_scope": [],
        "datasets": [],
        "structure_scope": [],
        "variable_scope": [],
        "variables": []
      },
      "semantic_reconstruction_status": "CANDIDATE_RECONSTRUCTED",
      "source_hash": "11b6538be0b01812384131d2f42a2d1869ed66052793b98c485d39104801735e",
      "source_section_classification": "OPERATIVE_RULE",
      "standard_id": "sdtm-model",
      "standard_name": "Study Data Tabulation Model",
      "standard_version": "2.0",
      "structure_scope": [],
      "validation_requirement": null,
      "validation_requirements": [],
      "variable_scope": []
    },
    {
      "applicability_conditions": [],
      "classification": "NON_NORMATIVE",
      "classification_status": "RESOLVED",
      "conformance_metadata": null,
      "dataset_scope": [],
      "evidence_locator": {
        "duplicate_locators": [],
        "extraction_timestamp": "2026-08-10T08:11:23+00:00",
        "page": 55,
        "parser_compiler_version": "m3r-1",
        "section": null,
        "source_binding_status": "SOURCE_BOUND",
        "source_excerpt": "6 RSTGCD Repro Stage Code Char Topic Not in human clinical trials Short name of the repro stage used for programming and sorting. Maximum 8 characters. The values of RSTGCD used in the Trial Paths dataset must match values for the same repro stage in the Trial Stages dataset."
      },
      "exact_source_excerpt": "6 RSTGCD Repro Stage Code Char Topic Not in human clinical trials Short name of the repro stage used for programming and sorting. Maximum 8 characters. The values of RSTGCD used in the Trial Paths dataset must match values for the same repro stage in the Trial Stages dataset.",
      "excluded_reason": null,
      "expected_outputs": [],
      "extraction_status": "CANDIDATE_RULE",
      "grain": null,
      "keys": [],
      "local_relative_source_path": "SDTM_v2.0.pdf",
      "normalized_atomic_requirement": "The values of RSTGCD used in the Trial Paths dataset must match values for the same repro stage in the Trial Stages dataset.",
      "normative_strength": "NON_NORMATIVE",
      "official_url": "https://www.cdisc.org/system/files/members/standard/foundational/SDTM_v2.0.pdf",
      "permitted_variations": [],
      "prohibited_behavior": [],
      "required_behavior": null,
      "required_inputs": [],
      "review_status": "CANDIDATE",
      "rule_id": "sdtm-model:27d79ba9c28cfa28",
      "rule_type": "OPERATIVE_RULE",
      "scope": {
        "candidate_kind": "prose_requirement",
        "dataset_scope": [],
        "datasets": [],
        "structure_scope": [],
        "variable_scope": [
          "RSTGCD"
        ],
        "variables": [
          "RSTGCD"
        ]
      },
      "semantic_reconstruction_status": "CANDIDATE_RECONSTRUCTED",
      "source_hash": "11b6538be0b01812384131d2f42a2d1869ed66052793b98c485d39104801735e",
      "source_section_classification": "OPERATIVE_RULE",
      "standard_id": "sdtm-model",
      "standard_name": "Study Data Tabulation Model",
      "standard_version": "2.0",
      "structure_scope": [],
      "validation_requirement": "The values of RSTGCD used in the Trial Paths dataset must match values for the same repro stage in the Trial Stages dataset.",
      "validation_requirements": [
        "The values of RSTGCD used in the Trial Paths dataset must match values for the same repro stage in the Trial Stages dataset."
      ],
      "variable_scope": [
        "RSTGCD"
      ]
    },
    {
      "applicability_conditions": [],
      "classification": "NON_NORMATIVE",
      "classification_status": "RESOLVED",
      "conformance_metadata": null,
      "dataset_scope": [],
      "evidence_locator": {
        "duplicate_locators": [],
        "extraction_timestamp": "2026-08-10T08:11:23+00:00",
        "page": 50,
        "parser_compiler_version": "m3r-1",
        "section": null,
        "source_binding_status": "SOURCE_BOUND",
        "source_excerpt": "2 RSUBJID Related Subject or Pool Identifier Char Identifier Identifier for a related subject or pool of subjects. RSUBJID may be populated with the USUBJID of the related subject or the POOLID of the related pool. RSUBJID will be null for data about associated persons who are related to the study but not to any study subjects."
      },
      "exact_source_excerpt": "2 RSUBJID Related Subject or Pool Identifier Char Identifier Identifier for a related subject or pool of subjects. RSUBJID may be populated with the USUBJID of the related subject or the POOLID of the related pool. RSUBJID will be null for data about associated persons who are related to the study but not to any study subjects.",
      "excluded_reason": null,
      "expected_outputs": [],
      "extraction_status": "CANDIDATE_RULE",
      "grain": null,
      "keys": [],
      "local_relative_source_path": "SDTM_v2.0.pdf",
      "normalized_atomic_requirement": "RSUBJID may be populated with the USUBJID of the related subject or the POOLID of the related pool.",
      "normative_strength": "NON_NORMATIVE",
      "official_url": "https://www.cdisc.org/system/files/members/standard/foundational/SDTM_v2.0.pdf",
      "permitted_variations": [
        "RSUBJID may be populated with the USUBJID of the related subject or the POOLID of the related pool."
      ],
      "prohibited_behavior": [],
      "required_behavior": null,
      "required_inputs": [],
      "review_status": "CANDIDATE",
      "rule_id": "sdtm-model:29e91a8bd7b437ba",
      "rule_type": "OPERATIVE_RULE",
      "scope": {
        "candidate_kind": "prose_requirement",
        "dataset_scope": [],
        "datasets": [],
        "structure_scope": [],
        "variable_scope": [
          "POOLID",
          "RSUBJID",
          "USUBJID"
        ],
        "variables": [
          "POOLID",
          "RSUBJID",
          "USUBJID"
        ]
      },
      "semantic_reconstruction_status": "CANDIDATE_RECONSTRUCTED",
      "source_hash": "11b6538be0b01812384131d2f42a2d1869ed66052793b98c485d39104801735e",
      "source_section_classification": "OPERATIVE_RULE",
      "standard_id": "sdtm-model",
      "standard_name": "Study Data Tabulation Model",
      "standard_version": "2.0",
      "structure_scope": [],
      "validation_requirement": null,
      "validation_requirements": [],
      "variable_scope": [
        "POOLID",
        "RSUBJID",
        "USUBJID"
      ]
    },
    {
      "applicability_conditions": [],
      "classification": "NON_NORMATIVE",
      "classification_status": "RESOLVED",
      "conformance_metadata": null,
      "dataset_scope": [],
      "evidence_locator": {
        "duplicate_locators": [],
        "extraction_timestamp": "2026-08-10T08:11:23+00:00",
        "page": 4,
        "parser_compiler_version": "m3r-1",
        "section": null,
        "source_binding_status": "SOURCE_BOUND",
        "source_excerpt": "\u2022 The Standard for Exchange of Nonclinical Data Implementation Guide: Animal Rule (SENDIG-AR) https://www.cdisc.org/standards/foundational/send/sendig-animal-rule In addition to the IGs, CDISC implementation advice is contained in: \u2022 Multiple indication-specific therapeutic area user guides (TAUGs; https://www.cdisc.org/standards/therapeutic-areas), which provide examples and implementation advice for various ther..."
      },
      "exact_source_excerpt": "\u2022 The Standard for Exchange of Nonclinical Data Implementation Guide: Animal Rule (SENDIG-AR) https://www.cdisc.org/standards/foundational/send/sendig-animal-rule In addition to the IGs, CDISC implementation advice is contained in: \u2022 Multiple indication-specific therapeutic area user guides (TAUGs; https://www.cdisc.org/standards/therapeutic-areas), which provide examples and implementation advice for various therapeutic areas. \u2022 Supplements for individual questionnaires, ratings, and scales (QRS; https://www.cdisc.org/foundational/qrs), which provide information on how to structure the data in a standard format for public domain and copyright-approved instruments. \u2022 The CDISC Controlled Terminology website page (https://www.cdisc.org/standards/terminology/controlled-terminology).",
      "excluded_reason": null,
      "expected_outputs": [],
      "extraction_status": "CANDIDATE_RULE",
      "grain": null,
      "keys": [],
      "local_relative_source_path": "SDTM_v2.0.pdf",
      "normalized_atomic_requirement": "\u2022 The Standard for Exchange of Nonclinical Data Implementation Guide: Animal Rule (SENDIG-AR) https://www.cdisc.org/standards/foundational/send/sendig-animal-rule In addition to the IGs, CDISC implementation advice is contained in: \u2022 Multiple indication-specific therapeutic area user guides (TAUGs; https://www.cdisc.org/standards/therapeutic-areas), which...",
      "normative_strength": "NON_NORMATIVE",
      "official_url": "https://www.cdisc.org/system/files/members/standard/foundational/SDTM_v2.0.pdf",
      "permitted_variations": [],
      "prohibited_behavior": [],
      "required_behavior": null,
      "required_inputs": [],
      "review_status": "CANDIDATE",
      "rule_id": "sdtm-model:2a9e1fde8a352013",
      "rule_type": "CONTROLLED_TERMINOLOGY",
      "scope": {
        "candidate_kind": "controlled_terminology",
        "dataset_scope": [],
        "datasets": [],
        "structure_scope": [],
        "variable_scope": [
          "QRS",
          "SENDIG"
        ],
        "variables": [
          "QRS",
          "SENDIG"
        ]
      },
      "semantic_reconstruction_status": "CANDIDATE_RECONSTRUCTED",
      "source_hash": "11b6538be0b01812384131d2f42a2d1869ed66052793b98c485d39104801735e",
      "source_section_classification": "CONTROLLED_TERMINOLOGY",
      "standard_id": "sdtm-model",
      "standard_name": "Study Data Tabulation Model",
      "standard_version": "2.0",
      "structure_scope": [],
      "validation_requirement": null,
      "validation_requirements": [],
      "variable_scope": [
        "QRS",
        "SENDIG"
      ]
    },
    {
      "applicability_conditions": [],
      "classification": "NON_NORMATIVE",
      "classification_status": "RESOLVED",
      "conformance_metadata": null,
      "dataset_scope": [],
      "evidence_locator": {
        "duplicate_locators": [],
        "extraction_timestamp": "2026-08-10T08:11:23+00:00",
        "page": 59,
        "parser_compiler_version": "m3r-1",
        "section": null,
        "source_binding_status": "SOURCE_BOUND",
        "source_excerpt": "2 DOMAIN Domain Abbreviation Char Identifier C49558 An abbreviation for a collection of observations, with a topic-specific commonality. 2-character abbreviation, which must be \"TS\". 3 TSSEQ Sequence Number Num Identifier Sequence number to ensure uniqueness within the dataset."
      },
      "exact_source_excerpt": "2 DOMAIN Domain Abbreviation Char Identifier C49558 An abbreviation for a collection of observations, with a topic-specific commonality. 2-character abbreviation, which must be \"TS\". 3 TSSEQ Sequence Number Num Identifier Sequence number to ensure uniqueness within the dataset.",
      "excluded_reason": null,
      "expected_outputs": [],
      "extraction_status": "CANDIDATE_RULE",
      "grain": null,
      "keys": [
        "C49558"
      ],
      "local_relative_source_path": "SDTM_v2.0.pdf",
      "normalized_atomic_requirement": "2-character abbreviation, which must be \"TS\".",
      "normative_strength": "NON_NORMATIVE",
      "official_url": "https://www.cdisc.org/system/files/members/standard/foundational/SDTM_v2.0.pdf",
      "permitted_variations": [],
      "prohibited_behavior": [],
      "required_behavior": null,
      "required_inputs": [],
      "review_status": "CANDIDATE",
      "rule_id": "sdtm-model:319f3fe505e1626f",
      "rule_type": "OPERATIVE_RULE",
      "scope": {
        "candidate_kind": "prose_requirement",
        "dataset_scope": [],
        "datasets": [],
        "structure_scope": [],
        "variable_scope": [
          "C49558",
          "DOMAIN",
          "TSSEQ"
        ],
        "variables": [
          "C49558",
          "DOMAIN",
          "TSSEQ"
        ]
      },
      "semantic_reconstruction_status": "CANDIDATE_RECONSTRUCTED",
      "source_hash": "11b6538be0b01812384131d2f42a2d1869ed66052793b98c485d39104801735e",
      "source_section_classification": "OPERATIVE_RULE",
      "standard_id": "sdtm-model",
      "standard_name": "Study Data Tabulation Model",
      "standard_version": "2.0",
      "structure_scope": [],
      "validation_requirement": "2-character abbreviation, which must be \"TS\".",
      "validation_requirements": [
        "2-character abbreviation, which must be \"TS\"."
      ],
      "variable_scope": [
        "C49558",
        "DOMAIN",
        "TSSEQ"
      ]
    },
    {
      "applicability_conditions": [],
      "classification": "NON_NORMATIVE",
      "classification_status": "RESOLVED",
      "conformance_metadata": null,
      "dataset_scope": [],
      "evidence_locator": {
        "duplicate_locators": [],
        "extraction_timestamp": "2026-08-10T08:11:23+00:00",
        "page": 42,
        "parser_compiler_version": "m3r-1",
        "section": null,
        "source_binding_status": "SOURCE_BOUND",
        "source_excerpt": "24 ETHNIC Ethnicity Char Record Qualifier Not in nonclinical trials The ethnicity of the subject. Sponsors should refer to FDA guidance regarding the collection of ethnicity data."
      },
      "exact_source_excerpt": "24 ETHNIC Ethnicity Char Record Qualifier Not in nonclinical trials The ethnicity of the subject. Sponsors should refer to FDA guidance regarding the collection of ethnicity data.",
      "excluded_reason": null,
      "expected_outputs": [],
      "extraction_status": "CANDIDATE_RULE",
      "grain": null,
      "keys": [],
      "local_relative_source_path": "SDTM_v2.0.pdf",
      "normalized_atomic_requirement": "Sponsors should refer to FDA guidance regarding the collection of ethnicity data.",
      "normative_strength": "NON_NORMATIVE",
      "official_url": "https://www.cdisc.org/system/files/members/standard/foundational/SDTM_v2.0.pdf",
      "permitted_variations": [
        "Sponsors should refer to FDA guidance regarding the collection of ethnicity data."
      ],
      "prohibited_behavior": [],
      "required_behavior": null,
      "required_inputs": [],
      "review_status": "CANDIDATE",
      "rule_id": "sdtm-model:35fcee5716109dd1",
      "rule_type": "OPERATIVE_RULE",
      "scope": {
        "candidate_kind": "prose_requirement",
        "dataset_scope": [],
        "datasets": [],
        "structure_scope": [],
        "variable_scope": [
          "ETHNIC",
          "FDA"
        ],
        "variables": [
          "ETHNIC",
          "FDA"
        ]
      },
      "semantic_reconstruction_status": "CANDIDATE_RECONSTRUCTED",
      "source_hash": "11b6538be0b01812384131d2f42a2d1869ed66052793b98c485d39104801735e",
      "source_section_classification": "OPERATIVE_RULE",
      "standard_id": "sdtm-model",
      "standard_name": "Study Data Tabulation Model",
      "standard_version": "2.0",
      "structure_scope": [],
      "validation_requirement": null,
      "validation_requirements": [],
      "variable_scope": [
        "ETHNIC",
        "FDA"
      ]
    },
    {
      "applicability_conditions": [
        "The RPHASE variable is Required when any Reproductive Phase Day variable is used."
      ],
      "classification": "NON_NORMATIVE",
      "classification_status": "RESOLVED",
      "conformance_metadata": null,
      "dataset_scope": [],
      "evidence_locator": {
        "duplicate_locators": [],
        "extraction_timestamp": "2026-08-10T08:11:23+00:00",
        "page": 35,
        "parser_compiler_version": "m3r-1",
        "section": null,
        "source_binding_status": "SOURCE_BOUND",
        "source_excerpt": "6 RPHASE Repro Phase Char Timing Not in human clinical trials Reproductive phase with which the reproductive stage of the reproductive path is associated. Defined in Trial Paths domain. The RPHASE variable is Required when any Reproductive Phase Day variable is used."
      },
      "exact_source_excerpt": "6 RPHASE Repro Phase Char Timing Not in human clinical trials Reproductive phase with which the reproductive stage of the reproductive path is associated. Defined in Trial Paths domain. The RPHASE variable is Required when any Reproductive Phase Day variable is used.",
      "excluded_reason": null,
      "expected_outputs": [],
      "extraction_status": "CANDIDATE_RULE",
      "grain": null,
      "keys": [],
      "local_relative_source_path": "SDTM_v2.0.pdf",
      "normalized_atomic_requirement": "The RPHASE variable is Required when any Reproductive Phase Day variable is used.",
      "normative_strength": "NON_NORMATIVE",
      "official_url": "https://www.cdisc.org/system/files/members/standard/foundational/SDTM_v2.0.pdf",
      "permitted_variations": [],
      "prohibited_behavior": [],
      "required_behavior": null,
      "required_inputs": [],
      "review_status": "CANDIDATE",
      "rule_id": "sdtm-model:38c8a8043be943c2",
      "rule_type": "OPERATIVE_RULE",
      "scope": {
        "candidate_kind": "variable_requirement",
        "dataset_scope": [],
        "datasets": [],
        "structure_scope": [],
        "variable_scope": [
          "RPHASE"
        ],
        "variables": [
          "RPHASE"
        ]
      },
      "semantic_reconstruction_status": "CANDIDATE_RECONSTRUCTED",
      "source_hash": "11b6538be0b01812384131d2f42a2d1869ed66052793b98c485d39104801735e",
      "source_section_classification": "OPERATIVE_RULE",
      "standard_id": "sdtm-model",
      "standard_name": "Study Data Tabulation Model",
      "standard_version": "2.0",
      "structure_scope": [],
      "validation_requirement": null,
      "validation_requirements": [],
      "variable_scope": [
        "RPHASE"
      ]
    },
    {
      "applicability_conditions": [],
      "classification": "NON_NORMATIVE",
      "classification_status": "RESOLVED",
      "conformance_metadata": null,
      "dataset_scope": [],
      "evidence_locator": {
        "duplicate_locators": [],
        "extraction_timestamp": "2026-08-10T08:11:23+00:00",
        "page": 53,
        "parser_compiler_version": "m3r-1",
        "section": null,
        "source_binding_status": "SOURCE_BOUND",
        "source_excerpt": "2 DOMAIN Domain Abbreviation Char Identifier C49558 An abbreviation for a collection of observations, with a topic-specific commonality. 2-character abbreviation, which must be \"TX\"."
      },
      "exact_source_excerpt": "2 DOMAIN Domain Abbreviation Char Identifier C49558 An abbreviation for a collection of observations, with a topic-specific commonality. 2-character abbreviation, which must be \"TX\".",
      "excluded_reason": null,
      "expected_outputs": [],
      "extraction_status": "CANDIDATE_RULE",
      "grain": null,
      "keys": [
        "C49558"
      ],
      "local_relative_source_path": "SDTM_v2.0.pdf",
      "normalized_atomic_requirement": "2-character abbreviation, which must be \"TX\".",
      "normative_strength": "NON_NORMATIVE",
      "official_url": "https://www.cdisc.org/system/files/members/standard/foundational/SDTM_v2.0.pdf",
      "permitted_variations": [],
      "prohibited_behavior": [],
      "required_behavior": null,
      "required_inputs": [],
      "review_status": "CANDIDATE",
      "rule_id": "sdtm-model:3d2499e883c4c5f4",
      "rule_type": "OPERATIVE_RULE",
      "scope": {
        "candidate_kind": "prose_requirement",
        "dataset_scope": [],
        "datasets": [],
        "structure_scope": [],
        "variable_scope": [
          "C49558",
          "DOMAIN"
        ],
        "variables": [
          "C49558",
          "DOMAIN"
        ]
      },
      "semantic_reconstruction_status": "CANDIDATE_RECONSTRUCTED",
      "source_hash": "11b6538be0b01812384131d2f42a2d1869ed66052793b98c485d39104801735e",
      "source_section_classification": "OPERATIVE_RULE",
      "standard_id": "sdtm-model",
      "standard_name": "Study Data Tabulation Model",
      "standard_version": "2.0",
      "structure_scope": [],
      "validation_requirement": "2-character abbreviation, which must be \"TX\".",
      "validation_requirements": [
        "2-character abbreviation, which must be \"TX\"."
      ],
      "variable_scope": [
        "C49558",
        "DOMAIN"
      ]
    },
    {
      "applicability_conditions": [],
      "classification": "NON_NORMATIVE",
      "classification_status": "RESOLVED",
      "conformance_metadata": null,
      "dataset_scope": [],
      "evidence_locator": {
        "duplicate_locators": [],
        "extraction_timestamp": "2026-08-10T08:11:23+00:00",
        "page": 45,
        "parser_compiler_version": "m3r-1",
        "section": null,
        "source_binding_status": "SOURCE_BOUND",
        "source_excerpt": "15 CODY Study Day of Comment Num Timing Actual study day of the comment, in integer days. The algorithm for calculations must be relative to the sponsor-defined RFSTDTC variable in the Demographics (DM) domain."
      },
      "exact_source_excerpt": "15 CODY Study Day of Comment Num Timing Actual study day of the comment, in integer days. The algorithm for calculations must be relative to the sponsor-defined RFSTDTC variable in the Demographics (DM) domain.",
      "excluded_reason": null,
      "expected_outputs": [],
      "extraction_status": "CANDIDATE_RULE",
      "grain": null,
      "keys": [],
      "local_relative_source_path": "SDTM_v2.0.pdf",
      "normalized_atomic_requirement": "The algorithm for calculations must be relative to the sponsor-defined RFSTDTC variable in the Demographics (DM) domain.",
      "normative_strength": "NON_NORMATIVE",
      "official_url": "https://www.cdisc.org/system/files/members/standard/foundational/SDTM_v2.0.pdf",
      "permitted_variations": [],
      "prohibited_behavior": [],
      "required_behavior": null,
      "required_inputs": [],
      "review_status": "CANDIDATE",
      "rule_id": "sdtm-model:3e56152993324811",
      "rule_type": "OPERATIVE_RULE",
      "scope": {
        "candidate_kind": "variable_requirement",
        "dataset_scope": [],
        "datasets": [],
        "structure_scope": [],
        "variable_scope": [
          "CODY",
          "RFSTDTC"
        ],
        "variables": [
          "CODY",
          "RFSTDTC"
        ]
      },
      "semantic_reconstruction_status": "CANDIDATE_RECONSTRUCTED",
      "source_hash": "11b6538be0b01812384131d2f42a2d1869ed66052793b98c485d39104801735e",
      "source_section_classification": "OPERATIVE_RULE",
      "standard_id": "sdtm-model",
      "standard_name": "Study Data Tabulation Model",
      "standard_version": "2.0",
      "structure_scope": [],
      "validation_requirement": "The algorithm for calculations must be relative to the sponsor-defined RFSTDTC variable in the Demographics (DM) domain.",
      "validation_requirements": [
        "The algorithm for calculations must be relative to the sponsor-defined RFSTDTC variable in the Demographics (DM) domain."
      ],
      "variable_scope": [
        "CODY",
        "RFSTDTC"
      ]
    },
    {
      "applicability_conditions": [],
      "classification": "NON_NORMATIVE",
      "classification_status": "RESOLVED",
      "conformance_metadata": null,
      "dataset_scope": [],
      "evidence_locator": {
        "duplicate_locators": [],
        "extraction_timestamp": "2026-08-10T08:11:23+00:00",
        "page": 3,
        "parser_compiler_version": "m3r-1",
        "section": null,
        "source_binding_status": "SOURCE_BOUND",
        "source_excerpt": "CDISC Study Data Tabulation Model (2.0 Final) \u00a9 2021 Clinical Data Interchange Standards Consortium, Inc. All rights reserved Page 3 2021-11-29 6 DATASETS FOR REPRESENTING RELATIONSHIPS .............................................. 64 6.1 RELATED RECORDS DATASET ............................................................................................................................. 64 6.2 SUPPLEMENTAL QUALIFI..."
      },
      "exact_source_excerpt": "CDISC Study Data Tabulation Model (2.0 Final) \u00a9 2021 Clinical Data Interchange Standards Consortium, Inc. All rights reserved Page 3 2021-11-29 6 DATASETS FOR REPRESENTING RELATIONSHIPS .............................................. 64 6.1 RELATED RECORDS DATASET ............................................................................................................................. 64 6.2 SUPPLEMENTAL QUALIFIERS DATASET ............................................................................................................... 65 6.3 POOL DEFINITION DATASET ................................................................................................................................ 67 6.4 RELATED SUBJECTS DATASET ............................................................................................................................. 67 6.5 DEVICE-SUBJECT RELATIONSHIPS DATASET ....................................................................................................... 68 6.6 ASSOCIATED PERSONS RELATIONSHIPS ............................................................................................................... 68 6.7 RELATED SPECIMENS DATASET........................................................................................................................... 69 7 CHANGES FROM SDTM V1.8 TO SDTM V2.0 ............................................................ 70 8 PROPOSED FUTURE CHANGES TO THE SDTM ...................................................... 73 9 APPENDICES ...................................................................................................................... 74 APPENDIX A: REPRESENTATIONS AND WARRANTIES, LIMITATIONS OF LIABILITY, AND DISCLAIMERS ....................... 74",
      "excluded_reason": null,
      "expected_outputs": [],
      "extraction_status": "CANDIDATE_RULE",
      "grain": null,
      "keys": [],
      "local_relative_source_path": "SDTM_v2.0.pdf",
      "normalized_atomic_requirement": "CDISC Study Data Tabulation Model (2.0 Final) \u00a9 2021 Clinical Data Interchange Standards Consortium, Inc. All rights reserved Page 3 2021-11-29 6 DATASETS FOR REPRESENTING RELATIONSHIPS .............................................. 64 6.1 RELATED RECORDS DATASET ................................................................................................",
      "normative_strength": "NON_NORMATIVE",
      "official_url": "https://www.cdisc.org/system/files/members/standard/foundational/SDTM_v2.0.pdf",
      "permitted_variations": [],
      "prohibited_behavior": [],
      "required_behavior": null,
      "required_inputs": [],
      "review_status": "CANDIDATE",
      "rule_id": "sdtm-model:40b2e00dbb00d5b0",
      "rule_type": "DEFINITION",
      "scope": {
        "candidate_kind": "prose_requirement",
        "dataset_scope": [],
        "datasets": [],
        "structure_scope": [],
        "variable_scope": [
          "AND",
          "APPENDICES",
          "APPENDIX",
          "ASSOCIATED",
          "CHANGES",
          "DATASET",
          "DATASETS",
          "DEFINITION",
          "DEVICE",
          "DISCLAIMERS",
          "FOR",
          "FROM",
          "FUTURE",
          "LIABILITY",
          "LIMITATIONS",
          "PERSONS",
          "POOL",
          "PROPOSED",
          "QUALIFIERS",
          "RECORDS",
          "RELATED",
          "RELATIONSHIPS",
          "REPRESENTATIONS",
          "REPRESENTING",
          "SPECIMENS",
          "SUBJECT",
          "SUBJECTS",
          "SUPPLEMENTAL",
          "THE",
          "WARRANTIES"
        ],
        "variables": [
          "AND",
          "APPENDICES",
          "APPENDIX",
          "ASSOCIATED",
          "CHANGES",
          "DATASET",
          "DATASETS",
          "DEFINITION",
          "DEVICE",
          "DISCLAIMERS",
          "FOR",
          "FROM",
          "FUTURE",
          "LIABILITY",
          "LIMITATIONS",
          "PERSONS",
          "POOL",
          "PROPOSED",
          "QUALIFIERS",
          "RECORDS",
          "RELATED",
          "RELATIONSHIPS",
          "REPRESENTATIONS",
          "REPRESENTING",
          "SPECIMENS",
          "SUBJECT",
          "SUBJECTS",
          "SUPPLEMENTAL",
          "THE",
          "WARRANTIES"
        ]
      },
      "semantic_reconstruction_status": "CANDIDATE_RECONSTRUCTED",
      "source_hash": "11b6538be0b01812384131d2f42a2d1869ed66052793b98c485d39104801735e",
      "source_section_classification": "DEFINITION",
      "standard_id": "sdtm-model",
      "standard_name": "Study Data Tabulation Model",
      "standard_version": "2.0",
      "structure_scope": [],
      "validation_requirement": null,
      "validation_requirements": [],
      "variable_scope": [
        "AND",
        "APPENDICES",
        "APPENDIX",
        "ASSOCIATED",
        "CHANGES",
        "DATASET",
        "DATASETS",
        "DEFINITION",
        "DEVICE",
        "DISCLAIMERS",
        "FOR",
        "FROM",
        "FUTURE",
        "LIABILITY",
        "LIMITATIONS",
        "PERSONS",
        "POOL",
        "PROPOSED",
        "QUALIFIERS",
        "RECORDS",
        "RELATED",
        "RELATIONSHIPS",
        "REPRESENTATIONS",
        "REPRESENTING",
        "SPECIMENS",
        "SUBJECT",
        "SUBJECTS",
        "SUPPLEMENTAL",
        "THE",
        "WARRANTIES"
      ]
    },
    {
      "applicability_conditions": [],
      "classification": "NON_NORMATIVE",
      "classification_status": "RESOLVED",
      "conformance_metadata": null,
      "dataset_scope": [],
      "evidence_locator": {
        "duplicate_locators": [],
        "extraction_timestamp": "2026-08-10T08:11:23+00:00",
        "page": 48,
        "parser_compiler_version": "m3r-1",
        "section": null,
        "source_binding_status": "SOURCE_BOUND",
        "source_excerpt": "6 SVPRESP Pre-Specified Char Variable Qualifier VISITNUM An indication that the visit is planned. Values should be \"Y\" or null."
      },
      "exact_source_excerpt": "6 SVPRESP Pre-Specified Char Variable Qualifier VISITNUM An indication that the visit is planned. Values should be \"Y\" or null.",
      "excluded_reason": null,
      "expected_outputs": [],
      "extraction_status": "CANDIDATE_RULE",
      "grain": null,
      "keys": [],
      "local_relative_source_path": "SDTM_v2.0.pdf",
      "normalized_atomic_requirement": "Values should be \"Y\" or null.",
      "normative_strength": "NON_NORMATIVE",
      "official_url": "https://www.cdisc.org/system/files/members/standard/foundational/SDTM_v2.0.pdf",
      "permitted_variations": [
        "Values should be \"Y\" or null."
      ],
      "prohibited_behavior": [],
      "required_behavior": null,
      "required_inputs": [],
      "review_status": "CANDIDATE",
      "rule_id": "sdtm-model:4544bd6d0871734a",
      "rule_type": "OPERATIVE_RULE",
      "scope": {
        "candidate_kind": "variable_requirement",
        "dataset_scope": [],
        "datasets": [],
        "structure_scope": [],
        "variable_scope": [
          "SVPRESP",
          "VISITNUM"
        ],
        "variables": [
          "SVPRESP",
          "VISITNUM"
        ]
      },
      "semantic_reconstruction_status": "CANDIDATE_RECONSTRUCTED",
      "source_hash": "11b6538be0b01812384131d2f42a2d1869ed66052793b98c485d39104801735e",
      "source_section_classification": "OPERATIVE_RULE",
      "standard_id": "sdtm-model",
      "standard_name": "Study Data Tabulation Model",
      "standard_version": "2.0",
      "structure_scope": [],
      "validation_requirement": null,
      "validation_requirements": [],
      "variable_scope": [
        "SVPRESP",
        "VISITNUM"
      ]
    },
    {
      "applicability_conditions": [],
      "classification": "NON_NORMATIVE",
      "classification_status": "RESOLVED",
      "conformance_metadata": null,
      "dataset_scope": [],
      "evidence_locator": {
        "duplicate_locators": [],
        "extraction_timestamp": "2026-08-10T08:11:23+00:00",
        "page": 30,
        "parser_compiler_version": "m3r-1",
        "section": null,
        "source_binding_status": "SOURCE_BOUND",
        "source_excerpt": "83 --DRVFL Derived Flag Char Record Qualifier C81197 An indication that the measurement or finding is not a collected value but is processed or computed by the sponsor from collected data. Should be \"Y\" or null. The average of other records used as a computed baseline. 84 --EVAL Evaluator Char Record Qualifier Not in QS, FT, and clinical classifications use case of RS C51824 The role of the person(s) providing an..."
      },
      "exact_source_excerpt": "83 --DRVFL Derived Flag Char Record Qualifier C81197 An indication that the measurement or finding is not a collected value but is processed or computed by the sponsor from collected data. Should be \"Y\" or null. The average of other records used as a computed baseline. 84 --EVAL Evaluator Char Record Qualifier Not in QS, FT, and clinical classifications use case of RS C51824 The role of the person(s) providing an evaluation, appraisal, or interpretation. Used only for results that are subjective (e.g., assigned by a person or a group). \"ADJUDICATION COMMITTEE\", \"INDEPENDENT ASSESSOR\" 85 --EVALID Evaluator Identifier Char Variable Qualifier --EVAL Not in QS, FT, and clinical classifications use case of RS C117043 A sequence of characters used to uniquely identify the evaluator(s). Used to distinguish multiple evaluators with the same role recorded in --EVAL. \"RADIOLOGIST1\", \"RADIOLOGIST2\" 86 -- ACPTFL Accepted Record Flag Char Record Qualifier C117038 An indication that a record is the endorsed assessment. Expected values can include \"Y\", \"N\", or null. This is not intended to be an analysis flag to indicate acceptability for a given analysis.",
      "excluded_reason": null,
      "expected_outputs": [],
      "extraction_status": "CANDIDATE_RULE",
      "grain": null,
      "keys": [
        "EVAL",
        "QS",
        "FT",
        "RS",
        "C117043"
      ],
      "local_relative_source_path": "SDTM_v2.0.pdf",
      "normalized_atomic_requirement": "Should be \"Y\" or null.",
      "normative_strength": "NON_NORMATIVE",
      "official_url": "https://www.cdisc.org/system/files/members/standard/foundational/SDTM_v2.0.pdf",
      "permitted_variations": [
        "Should be \"Y\" or null.",
        "Expected values can include \"Y\", \"N\", or null."
      ],
      "prohibited_behavior": [],
      "required_behavior": null,
      "required_inputs": [],
      "review_status": "CANDIDATE",
      "rule_id": "sdtm-model:459f4b30780a2888",
      "rule_type": "OPERATIVE_RULE",
      "scope": {
        "candidate_kind": "variable_requirement",
        "dataset_scope": [],
        "datasets": [],
        "structure_scope": [],
        "variable_scope": [
          "ACPTFL",
          "ADJUDICATION",
          "ASSESSOR",
          "C117038",
          "C117043",
          "C51824",
          "C81197",
          "COMMITTEE",
          "DRVFL",
          "EVAL",
          "EVALID",
          "INDEPENDENT",
          "RADIOLOGIST1",
          "RADIOLOGIST2"
        ],
        "variables": [
          "ACPTFL",
          "ADJUDICATION",
          "ASSESSOR",
          "C117038",
          "C117043",
          "C51824",
          "C81197",
          "COMMITTEE",
          "DRVFL",
          "EVAL",
          "EVALID",
          "INDEPENDENT",
          "RADIOLOGIST1",
          "RADIOLOGIST2"
        ]
      },
      "semantic_reconstruction_status": "CANDIDATE_RECONSTRUCTED",
      "source_hash": "11b6538be0b01812384131d2f42a2d1869ed66052793b98c485d39104801735e",
      "source_section_classification": "OPERATIVE_RULE",
      "standard_id": "sdtm-model",
      "standard_name": "Study Data Tabulation Model",
      "standard_version": "2.0",
      "structure_scope": [],
      "validation_requirement": null,
      "validation_requirements": [],
      "variable_scope": [
        "ACPTFL",
        "ADJUDICATION",
        "ASSESSOR",
        "C117038",
        "C117043",
        "C51824",
        "C81197",
        "COMMITTEE",
        "DRVFL",
        "EVAL",
        "EVALID",
        "INDEPENDENT",
        "RADIOLOGIST1",
        "RADIOLOGIST2"
      ]
    },
    {
      "applicability_conditions": [],
      "classification": "NON_NORMATIVE",
      "classification_status": "RESOLVED",
      "conformance_metadata": null,
      "dataset_scope": [],
      "evidence_locator": {
        "duplicate_locators": [],
        "extraction_timestamp": "2026-08-10T08:11:23+00:00",
        "page": 58,
        "parser_compiler_version": "m3r-1",
        "section": null,
        "source_binding_status": "SOURCE_BOUND",
        "source_excerpt": "2 DOMAIN Domain Abbreviation Char Identifier C49558 An abbreviation for a collection of observations, with a topic-specific commonality. 2-character abbreviation, which must be \"TM\"."
      },
      "exact_source_excerpt": "2 DOMAIN Domain Abbreviation Char Identifier C49558 An abbreviation for a collection of observations, with a topic-specific commonality. 2-character abbreviation, which must be \"TM\".",
      "excluded_reason": null,
      "expected_outputs": [],
      "extraction_status": "CANDIDATE_RULE",
      "grain": null,
      "keys": [
        "C49558"
      ],
      "local_relative_source_path": "SDTM_v2.0.pdf",
      "normalized_atomic_requirement": "2-character abbreviation, which must be \"TM\".",
      "normative_strength": "NON_NORMATIVE",
      "official_url": "https://www.cdisc.org/system/files/members/standard/foundational/SDTM_v2.0.pdf",
      "permitted_variations": [],
      "prohibited_behavior": [],
      "required_behavior": null,
      "required_inputs": [],
      "review_status": "CANDIDATE",
      "rule_id": "sdtm-model:48bead35a9dd9b52",
      "rule_type": "OPERATIVE_RULE",
      "scope": {
        "candidate_kind": "prose_requirement",
        "dataset_scope": [],
        "datasets": [],
        "structure_scope": [],
        "variable_scope": [
          "C49558",
          "DOMAIN"
        ],
        "variables": [
          "C49558",
          "DOMAIN"
        ]
      },
      "semantic_reconstruction_status": "CANDIDATE_RECONSTRUCTED",
      "source_hash": "11b6538be0b01812384131d2f42a2d1869ed66052793b98c485d39104801735e",
      "source_section_classification": "OPERATIVE_RULE",
      "standard_id": "sdtm-model",
      "standard_name": "Study Data Tabulation Model",
      "standard_version": "2.0",
      "structure_scope": [],
      "validation_requirement": "2-character abbreviation, which must be \"TM\".",
      "validation_requirements": [
        "2-character abbreviation, which must be \"TM\"."
      ],
      "variable_scope": [
        "C49558",
        "DOMAIN"
      ]
    },
    {
      "applicability_conditions": [
        "Not needed if SITEID is equivalent to INVID."
      ],
      "classification": "NON_NORMATIVE",
      "classification_status": "RESOLVED",
      "conformance_metadata": null,
      "dataset_scope": [],
      "evidence_locator": {
        "duplicate_locators": [],
        "extraction_timestamp": "2026-08-10T08:11:23+00:00",
        "page": 42,
        "parser_compiler_version": "m3r-1",
        "section": null,
        "source_binding_status": "SOURCE_BOUND",
        "source_excerpt": "16 INVID Investigator Identifier Char Record Qualifier Not in nonclinical trials An identifier to describe the Investigator for the study. May be used in addition to the SITEID. Not needed if SITEID is equivalent to INVID."
      },
      "exact_source_excerpt": "16 INVID Investigator Identifier Char Record Qualifier Not in nonclinical trials An identifier to describe the Investigator for the study. May be used in addition to the SITEID. Not needed if SITEID is equivalent to INVID.",
      "excluded_reason": null,
      "expected_outputs": [],
      "extraction_status": "CANDIDATE_RULE",
      "grain": null,
      "keys": [],
      "local_relative_source_path": "SDTM_v2.0.pdf",
      "normalized_atomic_requirement": "16 INVID Investigator Identifier Char Record Qualifier Not in nonclinical trials An identifier to describe the Investigator for the study. May be used in addition to the SITEID. Not needed if SITEID is equivalent to INVID.",
      "normative_strength": "NON_NORMATIVE",
      "official_url": "https://www.cdisc.org/system/files/members/standard/foundational/SDTM_v2.0.pdf",
      "permitted_variations": [
        "May be used in addition to the SITEID."
      ],
      "prohibited_behavior": [],
      "required_behavior": null,
      "required_inputs": [],
      "review_status": "CANDIDATE",
      "rule_id": "sdtm-model:49e26b8a6c237bda",
      "rule_type": "OPERATIVE_RULE",
      "scope": {
        "candidate_kind": "prose_requirement",
        "dataset_scope": [],
        "datasets": [],
        "structure_scope": [],
        "variable_scope": [
          "INVID",
          "SITEID"
        ],
        "variables": [
          "INVID",
          "SITEID"
        ]
      },
      "semantic_reconstruction_status": "CANDIDATE_RECONSTRUCTED",
      "source_hash": "11b6538be0b01812384131d2f42a2d1869ed66052793b98c485d39104801735e",
      "source_section_classification": "OPERATIVE_RULE",
      "standard_id": "sdtm-model",
      "standard_name": "Study Data Tabulation Model",
      "standard_version": "2.0",
      "structure_scope": [],
      "validation_requirement": null,
      "validation_requirements": [],
      "variable_scope": [
        "INVID",
        "SITEID"
      ]
    },
    {
      "applicability_conditions": [],
      "classification": "NON_NORMATIVE",
      "classification_status": "RESOLVED",
      "conformance_metadata": null,
      "dataset_scope": [],
      "evidence_locator": {
        "duplicate_locators": [],
        "extraction_timestamp": "2026-08-10T08:11:23+00:00",
        "page": 26,
        "parser_compiler_version": "m3r-1",
        "section": null,
        "source_binding_status": "SOURCE_BOUND",
        "source_excerpt": "39 -- STRESN Numeric Result/Finding in Standard Units Num Result Qualifier C171009 The standardized result of the measurement, test, or examination in numeric format. Copied in numeric format from -- STRESC. --STRESN should store all numeric test results or findings."
      },
      "exact_source_excerpt": "39 -- STRESN Numeric Result/Finding in Standard Units Num Result Qualifier C171009 The standardized result of the measurement, test, or examination in numeric format. Copied in numeric format from -- STRESC. --STRESN should store all numeric test results or findings.",
      "excluded_reason": null,
      "expected_outputs": [],
      "extraction_status": "CANDIDATE_RULE",
      "grain": null,
      "keys": [],
      "local_relative_source_path": "SDTM_v2.0.pdf",
      "normalized_atomic_requirement": "--STRESN should store all numeric test results or findings.",
      "normative_strength": "NON_NORMATIVE",
      "official_url": "https://www.cdisc.org/system/files/members/standard/foundational/SDTM_v2.0.pdf",
      "permitted_variations": [
        "--STRESN should store all numeric test results or findings."
      ],
      "prohibited_behavior": [],
      "required_behavior": null,
      "required_inputs": [],
      "review_status": "CANDIDATE",
      "rule_id": "sdtm-model:4c311e5699852536",
      "rule_type": "OPERATIVE_RULE",
      "scope": {
        "candidate_kind": "prose_requirement",
        "dataset_scope": [],
        "datasets": [],
        "structure_scope": [],
        "variable_scope": [
          "C171009",
          "STRESC",
          "STRESN"
        ],
        "variables": [
          "C171009",
          "STRESC",
          "STRESN"
        ]
      },
      "semantic_reconstruction_status": "CANDIDATE_RECONSTRUCTED",
      "source_hash": "11b6538be0b01812384131d2f42a2d1869ed66052793b98c485d39104801735e",
      "source_section_classification": "OPERATIVE_RULE",
      "standard_id": "sdtm-model",
      "standard_name": "Study Data Tabulation Model",
      "standard_version": "2.0",
      "structure_scope": [],
      "validation_requirement": null,
      "validation_requirements": [],
      "variable_scope": [
        "C171009",
        "STRESC",
        "STRESN"
      ]
    },
    {
      "applicability_conditions": [],
      "classification": "NON_NORMATIVE",
      "classification_status": "RESOLVED",
      "conformance_metadata": null,
      "dataset_scope": [],
      "evidence_locator": {
        "duplicate_locators": [],
        "extraction_timestamp": "2026-08-10T08:11:23+00:00",
        "page": 33,
        "parser_compiler_version": "m3r-1",
        "section": null,
        "source_binding_status": "SOURCE_BOUND",
        "source_excerpt": "8 FOCID Focus of Study- Specific Interest Char Identifier Identification of a focus of study- specific interest on or within a subject or specimen as called out in the protocol for which a measurement, test, or examination was performed. The value in this variable should have inherent semantic meaning. A drug application site (e.g., \"Injection site 1\", \"Biopsy site 1\", \"Treated site 1\"), or a more specific focus (..."
      },
      "exact_source_excerpt": "8 FOCID Focus of Study- Specific Interest Char Identifier Identification of a focus of study- specific interest on or within a subject or specimen as called out in the protocol for which a measurement, test, or examination was performed. The value in this variable should have inherent semantic meaning. A drug application site (e.g., \"Injection site 1\", \"Biopsy site 1\", \"Treated site 1\"), or a more specific focus (e.g., \"OD\" (right eye), \"Upper left quadrant of the back\") 9 --SEQ Sequence Number Num Identifier C70710 A number used in combination with the identifier of the subject of the observation to uniquely identify a record within a domain. May be any valid number (including decimals) and does not have to start at 1. Datasets that do not contain subject data, such as the Trial Summary (TS) domain and the Device Tracking (DT) domains, use --SEQ as a sequence",
      "excluded_reason": null,
      "expected_outputs": [],
      "extraction_status": "CANDIDATE_RULE",
      "grain": null,
      "keys": [
        "C70710"
      ],
      "local_relative_source_path": "SDTM_v2.0.pdf",
      "normalized_atomic_requirement": "The value in this variable should have inherent semantic meaning.",
      "normative_strength": "NON_NORMATIVE",
      "official_url": "https://www.cdisc.org/system/files/members/standard/foundational/SDTM_v2.0.pdf",
      "permitted_variations": [
        "The value in this variable should have inherent semantic meaning.",
        "May be any valid number (including decimals) and does not have to start at 1."
      ],
      "prohibited_behavior": [],
      "required_behavior": null,
      "required_inputs": [],
      "review_status": "CANDIDATE",
      "rule_id": "sdtm-model:4d6974e0b58ac95f",
      "rule_type": "OPERATIVE_RULE",
      "scope": {
        "candidate_kind": "variable_requirement",
        "dataset_scope": [],
        "datasets": [],
        "structure_scope": [],
        "variable_scope": [
          "C70710",
          "FOCID",
          "SEQ"
        ],
        "variables": [
          "C70710",
          "FOCID",
          "SEQ"
        ]
      },
      "semantic_reconstruction_status": "CANDIDATE_RECONSTRUCTED",
      "source_hash": "11b6538be0b01812384131d2f42a2d1869ed66052793b98c485d39104801735e",
      "source_section_classification": "OPERATIVE_RULE",
      "standard_id": "sdtm-model",
      "standard_name": "Study Data Tabulation Model",
      "standard_version": "2.0",
      "structure_scope": [],
      "validation_requirement": null,
      "validation_requirements": [],
      "variable_scope": [
        "C70710",
        "FOCID",
        "SEQ"
      ]
    },
    {
      "applicability_conditions": [
        "10 --STAT Completion Status Char Record Qualifier Used to indicate when a question about the occurrence of a prespecified intervention was not answered."
      ],
      "classification": "NON_NORMATIVE",
      "classification_status": "RESOLVED",
      "conformance_metadata": null,
      "dataset_scope": [],
      "evidence_locator": {
        "duplicate_locators": [],
        "extraction_timestamp": "2026-08-10T08:11:23+00:00",
        "page": 12,
        "parser_compiler_version": "m3r-1",
        "section": null,
        "source_binding_status": "SOURCE_BOUND",
        "source_excerpt": "10 --STAT Completion Status Char Record Qualifier Used to indicate when a question about the occurrence of a prespecified intervention was not answered. Should be null or have a value of \"NOT DONE\"."
      },
      "exact_source_excerpt": "10 --STAT Completion Status Char Record Qualifier Used to indicate when a question about the occurrence of a prespecified intervention was not answered. Should be null or have a value of \"NOT DONE\".",
      "excluded_reason": null,
      "expected_outputs": [],
      "extraction_status": "CANDIDATE_RULE",
      "grain": null,
      "keys": [],
      "local_relative_source_path": "SDTM_v2.0.pdf",
      "normalized_atomic_requirement": "Should be null or have a value of \"NOT DONE\".",
      "normative_strength": "NON_NORMATIVE",
      "official_url": "https://www.cdisc.org/system/files/members/standard/foundational/SDTM_v2.0.pdf",
      "permitted_variations": [
        "Should be null or have a value of \"NOT DONE\"."
      ],
      "prohibited_behavior": [],
      "required_behavior": null,
      "required_inputs": [],
      "review_status": "CANDIDATE",
      "rule_id": "sdtm-model:4d73af37b48831ed",
      "rule_type": "OPERATIVE_RULE",
      "scope": {
        "candidate_kind": "prose_requirement",
        "dataset_scope": [],
        "datasets": [],
        "structure_scope": [],
        "variable_scope": [
          "DONE",
          "NOT",
          "STAT"
        ],
        "variables": [
          "DONE",
          "NOT",
          "STAT"
        ]
      },
      "semantic_reconstruction_status": "CANDIDATE_RECONSTRUCTED",
      "source_hash": "11b6538be0b01812384131d2f42a2d1869ed66052793b98c485d39104801735e",
      "source_section_classification": "OPERATIVE_RULE",
      "standard_id": "sdtm-model",
      "standard_name": "Study Data Tabulation Model",
      "standard_version": "2.0",
      "structure_scope": [],
      "validation_requirement": null,
      "validation_requirements": [],
      "variable_scope": [
        "DONE",
        "NOT",
        "STAT"
      ]
    },
    {
      "applicability_conditions": [],
      "classification": "NON_NORMATIVE",
      "classification_status": "RESOLVED",
      "conformance_metadata": null,
      "dataset_scope": [],
      "evidence_locator": {
        "duplicate_locators": [],
        "extraction_timestamp": "2026-08-10T08:11:23+00:00",
        "page": 65,
        "parser_compiler_version": "m3r-1",
        "section": null,
        "source_binding_status": "SOURCE_BOUND",
        "source_excerpt": "4 APID Associated Persons Identifier Char Identifier Identifier for a single associated person, a group of associated persons, or a pool of associated persons. If APID identifies a pool, POOLDEF records must exist for"
      },
      "exact_source_excerpt": "4 APID Associated Persons Identifier Char Identifier Identifier for a single associated person, a group of associated persons, or a pool of associated persons. If APID identifies a pool, POOLDEF records must exist for",
      "excluded_reason": null,
      "expected_outputs": [],
      "extraction_status": "CANDIDATE_RULE",
      "grain": null,
      "keys": [],
      "local_relative_source_path": "SDTM_v2.0.pdf",
      "normalized_atomic_requirement": "If APID identifies a pool, POOLDEF records must exist for",
      "normative_strength": "NON_NORMATIVE",
      "official_url": "https://www.cdisc.org/system/files/members/standard/foundational/SDTM_v2.0.pdf",
      "permitted_variations": [],
      "prohibited_behavior": [],
      "required_behavior": null,
      "required_inputs": [],
      "review_status": "CANDIDATE",
      "rule_id": "sdtm-model:4d88f4b4d3a79122",
      "rule_type": "OPERATIVE_RULE",
      "scope": {
        "candidate_kind": "prose_requirement",
        "dataset_scope": [],
        "datasets": [],
        "structure_scope": [],
        "variable_scope": [
          "APID",
          "POOLDEF"
        ],
        "variables": [
          "APID",
          "POOLDEF"
        ]
      },
      "semantic_reconstruction_status": "CANDIDATE_RECONSTRUCTED",
      "source_hash": "11b6538be0b01812384131d2f42a2d1869ed66052793b98c485d39104801735e",
      "source_section_classification": "OPERATIVE_RULE",
      "standard_id": "sdtm-model",
      "standard_name": "Study Data Tabulation Model",
      "standard_version": "2.0",
      "structure_scope": [],
      "validation_requirement": "If APID identifies a pool, POOLDEF records must exist for",
      "validation_requirements": [
        "If APID identifies a pool, POOLDEF records must exist for"
      ],
      "variable_scope": [
        "APID",
        "POOLDEF"
      ]
    },
    {
      "applicability_conditions": [],
      "classification": "NON_NORMATIVE",
      "classification_status": "RESOLVED",
      "conformance_metadata": null,
      "dataset_scope": [],
      "evidence_locator": {
        "duplicate_locators": [],
        "extraction_timestamp": "2026-08-10T08:11:23+00:00",
        "page": 48,
        "parser_compiler_version": "m3r-1",
        "section": null,
        "source_binding_status": "SOURCE_BOUND",
        "source_excerpt": "2 DOMAIN Domain Abbreviation Char Identifier C49558 An abbreviation for a collection of observations, with a topic-specific commonality. 2-character abbreviation, which must be \"SV\"."
      },
      "exact_source_excerpt": "2 DOMAIN Domain Abbreviation Char Identifier C49558 An abbreviation for a collection of observations, with a topic-specific commonality. 2-character abbreviation, which must be \"SV\".",
      "excluded_reason": null,
      "expected_outputs": [],
      "extraction_status": "CANDIDATE_RULE",
      "grain": null,
      "keys": [
        "C49558"
      ],
      "local_relative_source_path": "SDTM_v2.0.pdf",
      "normalized_atomic_requirement": "2-character abbreviation, which must be \"SV\".",
      "normative_strength": "NON_NORMATIVE",
      "official_url": "https://www.cdisc.org/system/files/members/standard/foundational/SDTM_v2.0.pdf",
      "permitted_variations": [],
      "prohibited_behavior": [],
      "required_behavior": null,
      "required_inputs": [],
      "review_status": "CANDIDATE",
      "rule_id": "sdtm-model:5592b24e564b10bd",
      "rule_type": "OPERATIVE_RULE",
      "scope": {
        "candidate_kind": "prose_requirement",
        "dataset_scope": [],
        "datasets": [],
        "structure_scope": [],
        "variable_scope": [
          "C49558",
          "DOMAIN"
        ],
        "variables": [
          "C49558",
          "DOMAIN"
        ]
      },
      "semantic_reconstruction_status": "CANDIDATE_RECONSTRUCTED",
      "source_hash": "11b6538be0b01812384131d2f42a2d1869ed66052793b98c485d39104801735e",
      "source_section_classification": "OPERATIVE_RULE",
      "standard_id": "sdtm-model",
      "standard_name": "Study Data Tabulation Model",
      "standard_version": "2.0",
      "structure_scope": [],
      "validation_requirement": "2-character abbreviation, which must be \"SV\".",
      "validation_requirements": [
        "2-character abbreviation, which must be \"SV\"."
      ],
      "variable_scope": [
        "C49558",
        "DOMAIN"
      ]
    },
    {
      "applicability_conditions": [],
      "classification": "NON_NORMATIVE",
      "classification_status": "RESOLVED",
      "conformance_metadata": null,
      "dataset_scope": [],
      "evidence_locator": {
        "duplicate_locators": [],
        "extraction_timestamp": "2026-08-10T08:11:23+00:00",
        "page": 60,
        "parser_compiler_version": "m3r-1",
        "section": null,
        "source_binding_status": "SOURCE_BOUND",
        "source_excerpt": "2 DOMAIN Domain Abbreviation Char Identifier C49558 An abbreviation for a collection of observations, with a topic-specific commonality. 2-character abbreviation, which must be \"AC\". 3 ACSEQ Sequence Number Num Identifier Sequence number given to ensure uniqueness within a dataset. Allows inclusion of multiple records for the same ACPARMCD."
      },
      "exact_source_excerpt": "2 DOMAIN Domain Abbreviation Char Identifier C49558 An abbreviation for a collection of observations, with a topic-specific commonality. 2-character abbreviation, which must be \"AC\". 3 ACSEQ Sequence Number Num Identifier Sequence number given to ensure uniqueness within a dataset. Allows inclusion of multiple records for the same ACPARMCD.",
      "excluded_reason": null,
      "expected_outputs": [],
      "extraction_status": "CANDIDATE_RULE",
      "grain": null,
      "keys": [
        "C49558"
      ],
      "local_relative_source_path": "SDTM_v2.0.pdf",
      "normalized_atomic_requirement": "2-character abbreviation, which must be \"AC\".",
      "normative_strength": "NON_NORMATIVE",
      "official_url": "https://www.cdisc.org/system/files/members/standard/foundational/SDTM_v2.0.pdf",
      "permitted_variations": [],
      "prohibited_behavior": [],
      "required_behavior": null,
      "required_inputs": [],
      "review_status": "CANDIDATE",
      "rule_id": "sdtm-model:57629127079eebf6",
      "rule_type": "OPERATIVE_RULE",
      "scope": {
        "candidate_kind": "prose_requirement",
        "dataset_scope": [],
        "datasets": [],
        "structure_scope": [],
        "variable_scope": [
          "ACPARMCD",
          "ACSEQ",
          "C49558",
          "DOMAIN"
        ],
        "variables": [
          "ACPARMCD",
          "ACSEQ",
          "C49558",
          "DOMAIN"
        ]
      },
      "semantic_reconstruction_status": "CANDIDATE_RECONSTRUCTED",
      "source_hash": "11b6538be0b01812384131d2f42a2d1869ed66052793b98c485d39104801735e",
      "source_section_classification": "OPERATIVE_RULE",
      "standard_id": "sdtm-model",
      "standard_name": "Study Data Tabulation Model",
      "standard_version": "2.0",
      "structure_scope": [],
      "validation_requirement": "2-character abbreviation, which must be \"AC\".",
      "validation_requirements": [
        "2-character abbreviation, which must be \"AC\"."
      ],
      "variable_scope": [
        "ACPARMCD",
        "ACSEQ",
        "C49558",
        "DOMAIN"
      ]
    },
    {
      "applicability_conditions": [],
      "classification": "NON_NORMATIVE",
      "classification_status": "RESOLVED",
      "conformance_metadata": null,
      "dataset_scope": [],
      "evidence_locator": {
        "duplicate_locators": [],
        "extraction_timestamp": "2026-08-10T08:11:23+00:00",
        "page": 18,
        "parser_compiler_version": "m3r-1",
        "section": null,
        "source_binding_status": "SOURCE_BOUND",
        "source_excerpt": "CDISC Study Data Tabulation Model (2.0 Final) \u00a9 2021 Clinical Data Interchange Standards Consortium, Inc. All rights reserved Page 18 2021-11-29 # Variable Name Variable Label Type Format Role Variable(s) Qualified Usage Restrictions Variable C-code Definition Notes Examples treatment was the cause of the event. 37 --RLDEV Relationship of Event to Device Char Record Qualifier A judgement as to the likelihood that..."
      },
      "exact_source_excerpt": "CDISC Study Data Tabulation Model (2.0 Final) \u00a9 2021 Clinical Data Interchange Standards Consortium, Inc. All rights reserved Page 18 2021-11-29 # Variable Name Variable Label Type Format Role Variable(s) Qualified Usage Restrictions Variable C-code Definition Notes Examples treatment was the cause of the event. 37 --RLDEV Relationship of Event to Device Char Record Qualifier A judgement as to the likelihood that the device caused the event. The device may or may not be the device under study. Controlled terminology from EC Directive MEDDEV 2.7/3 March 2015 is required in EU but not US. \"CAUSAL\", \"UNLIKELY\" 38 -- RELNST Relationship to Non- Study Treatment Char Record Qualifier C82564 The investigator's assessment of the causal relationship of the event to a non-study treatment. \"MORE LIKELY RELATED TO ASPIRIN USE\" 39 --PATT Pattern of Event Char Record Qualifier C82550 A characterization of the temporal pattern of occurrences of the event. \"INTERMITTENT\", \"CONTINUOUS\", \"SINGLE EVENT\" 40 --OUT Outcome of Event Char Record Qualifier C171001 The status associated with the result or conclusion of the event. \"RECOVERED/RESOLVED\", \"FATAL\" 41 --SCAN Involves Cancer Char Record Qualifier Not in nonclinical trials C82561 An indication as to whether the reason an event was serious was because the event was associated with cancer. Valid values are \"Y\", \"N\", and null. 42 --SCONG Congenital Anomaly or Birth Defect Char Record Qualifier Not in nonclinical trials C2849 An indication as to whether the reason an event is serious is because the event is associated with congenital anomaly or birth defect in an offspring of the subject. Valid values are \"Y\", \"N\", and null. 43 --SDISAB Persist or Signif Disability/Incapacity Char Record Qualifier Not in nonclinical trials C68606 An indication as to whether the reason an event is serious is because the event resulted in a significant, persistent, or permanent change, impairment, damage, or disruption in the subject's body function/structure, physical activities, and/or quality of life. Valid values are \"Y\", \"N\", and null. 44 --SDTH Results in Death Char Record Qualifier Not in nonclinical trials C82549 An indication as to whether the reason an event is serious is because the event resulted in death. Valid values are \"Y\", \"N\", and null. 45 --SHOSP Requires or Prolongs Hospitalization Char Record Qualifier Not in nonclinical trials C68605 An indication as to whether the reason an event is serious is because the event resulted in or prolonged hospitalization. Valid values are \"Y\", \"N\", and null. 46 --SLIFE Is Life Threatening Char Record Qualifier Not in nonclinical trials C82508 An indication as to whether the reason an event is serious is Valid values are \"Y\", \"N\", and null.",
      "excluded_reason": null,
      "expected_outputs": [],
      "extraction_status": "CANDIDATE_RULE",
      "grain": null,
      "keys": [],
      "local_relative_source_path": "SDTM_v2.0.pdf",
      "normalized_atomic_requirement": "The device may or may not be the device under study.",
      "normative_strength": "NON_NORMATIVE",
      "official_url": "https://www.cdisc.org/system/files/members/standard/foundational/SDTM_v2.0.pdf",
      "permitted_variations": [
        "The device may or may not be the device under study.",
        "\"RECOVERED/RESOLVED\", \"FATAL\" 41 --SCAN Involves Cancer Char Record Qualifier Not in nonclinical trials C82561 An indication as to whether the reason an event was serious was because the event was associated with cancer.",
        "43 --SDISAB Persist or Signif Disability/Incapacity Char Record Qualifier Not in nonclinical trials C68606 An indication as to whether the reason an event is serious is because the event resulted in a significant, persistent, or permanent change, impairment, damage, or disruption in the subject's body function/structure, physical activities, and/or quality of life."
      ],
      "prohibited_behavior": [],
      "required_behavior": null,
      "required_inputs": [],
      "review_status": "CANDIDATE",
      "rule_id": "sdtm-model:5db55a30a8a83ece",
      "rule_type": "CONTROLLED_TERMINOLOGY",
      "scope": {
        "candidate_kind": "controlled_terminology",
        "dataset_scope": [],
        "datasets": [],
        "structure_scope": [],
        "variable_scope": [
          "ASPIRIN",
          "C171001",
          "C2849",
          "C68605",
          "C68606",
          "C82508",
          "C82549",
          "C82550",
          "C82561",
          "C82564",
          "CAUSAL",
          "CONTINUOUS",
          "EVENT",
          "FATAL",
          "INTERMITTENT",
          "LIKELY",
          "MEDDEV",
          "MORE",
          "OUT",
          "PATT",
          "RECOVERED",
          "RELATED",
          "RELNST",
          "RESOLVED",
          "RLDEV",
          "SCAN",
          "SCONG",
          "SDISAB",
          "SDTH",
          "SHOSP",
          "SINGLE",
          "SLIFE",
          "UNLIKELY",
          "USE"
        ],
        "variables": [
          "ASPIRIN",
          "C171001",
          "C2849",
          "C68605",
          "C68606",
          "C82508",
          "C82549",
          "C82550",
          "C82561",
          "C82564",
          "CAUSAL",
          "CONTINUOUS",
          "EVENT",
          "FATAL",
          "INTERMITTENT",
          "LIKELY",
          "MEDDEV",
          "MORE",
          "OUT",
          "PATT",
          "RECOVERED",
          "RELATED",
          "RELNST",
          "RESOLVED",
          "RLDEV",
          "SCAN",
          "SCONG",
          "SDISAB",
          "SDTH",
          "SHOSP",
          "SINGLE",
          "SLIFE",
          "UNLIKELY",
          "USE"
        ]
      },
      "semantic_reconstruction_status": "CANDIDATE_RECONSTRUCTED",
      "source_hash": "11b6538be0b01812384131d2f42a2d1869ed66052793b98c485d39104801735e",
      "source_section_classification": "CONTROLLED_TERMINOLOGY",
      "standard_id": "sdtm-model",
      "standard_name": "Study Data Tabulation Model",
      "standard_version": "2.0",
      "structure_scope": [],
      "validation_requirement": null,
      "validation_requirements": [],
      "variable_scope": [
        "ASPIRIN",
        "C171001",
        "C2849",
        "C68605",
        "C68606",
        "C82508",
        "C82549",
        "C82550",
        "C82561",
        "C82564",
        "CAUSAL",
        "CONTINUOUS",
        "EVENT",
        "FATAL",
        "INTERMITTENT",
        "LIKELY",
        "MEDDEV",
        "MORE",
        "OUT",
        "PATT",
        "RECOVERED",
        "RELATED",
        "RELNST",
        "RESOLVED",
        "RLDEV",
        "SCAN",
        "SCONG",
        "SDISAB",
        "SDTH",
        "SHOSP",
        "SINGLE",
        "SLIFE",
        "UNLIKELY",
        "USE"
      ]
    },
    {
      "applicability_conditions": [],
      "classification": "NON_NORMATIVE",
      "classification_status": "RESOLVED",
      "conformance_metadata": null,
      "dataset_scope": [],
      "evidence_locator": {
        "duplicate_locators": [],
        "extraction_timestamp": "2026-08-10T08:11:23+00:00",
        "page": 48,
        "parser_compiler_version": "m3r-1",
        "section": null,
        "source_binding_status": "SOURCE_BOUND",
        "source_excerpt": "4 VISITNUM Visit Number Num Topic C83101 An assigned numeric identifier that aligns to the chronological order of a clinical encounter. Decimal numbering may be useful for inserting unplanned visits. Used for sorting."
      },
      "exact_source_excerpt": "4 VISITNUM Visit Number Num Topic C83101 An assigned numeric identifier that aligns to the chronological order of a clinical encounter. Decimal numbering may be useful for inserting unplanned visits. Used for sorting.",
      "excluded_reason": null,
      "expected_outputs": [],
      "extraction_status": "CANDIDATE_RULE",
      "grain": null,
      "keys": [],
      "local_relative_source_path": "SDTM_v2.0.pdf",
      "normalized_atomic_requirement": "Decimal numbering may be useful for inserting unplanned visits.",
      "normative_strength": "NON_NORMATIVE",
      "official_url": "https://www.cdisc.org/system/files/members/standard/foundational/SDTM_v2.0.pdf",
      "permitted_variations": [
        "Decimal numbering may be useful for inserting unplanned visits."
      ],
      "prohibited_behavior": [],
      "required_behavior": null,
      "required_inputs": [],
      "review_status": "CANDIDATE",
      "rule_id": "sdtm-model:6279be876c07498c",
      "rule_type": "OPERATIVE_RULE",
      "scope": {
        "candidate_kind": "prose_requirement",
        "dataset_scope": [],
        "datasets": [],
        "structure_scope": [],
        "variable_scope": [
          "C83101",
          "VISITNUM"
        ],
        "variables": [
          "C83101",
          "VISITNUM"
        ]
      },
      "semantic_reconstruction_status": "CANDIDATE_RECONSTRUCTED",
      "source_hash": "11b6538be0b01812384131d2f42a2d1869ed66052793b98c485d39104801735e",
      "source_section_classification": "OPERATIVE_RULE",
      "standard_id": "sdtm-model",
      "standard_name": "Study Data Tabulation Model",
      "standard_version": "2.0",
      "structure_scope": [],
      "validation_requirement": null,
      "validation_requirements": [],
      "variable_scope": [
        "C83101",
        "VISITNUM"
      ]
    },
    {
      "applicability_conditions": [],
      "classification": "NON_NORMATIVE",
      "classification_status": "RESOLVED",
      "conformance_metadata": null,
      "dataset_scope": [],
      "evidence_locator": {
        "duplicate_locators": [],
        "extraction_timestamp": "2026-08-10T08:11:23+00:00",
        "page": 40,
        "parser_compiler_version": "m3r-1",
        "section": null,
        "source_binding_status": "SOURCE_BOUND",
        "source_excerpt": "2 DOMAIN Domain Abbreviation Char Identifier C49558 An abbreviation for a collection of observations, with a topic-specific commonality. 2-character abbreviation, which must be \"DM\"."
      },
      "exact_source_excerpt": "2 DOMAIN Domain Abbreviation Char Identifier C49558 An abbreviation for a collection of observations, with a topic-specific commonality. 2-character abbreviation, which must be \"DM\".",
      "excluded_reason": null,
      "expected_outputs": [],
      "extraction_status": "CANDIDATE_RULE",
      "grain": null,
      "keys": [
        "C49558"
      ],
      "local_relative_source_path": "SDTM_v2.0.pdf",
      "normalized_atomic_requirement": "2-character abbreviation, which must be \"DM\".",
      "normative_strength": "NON_NORMATIVE",
      "official_url": "https://www.cdisc.org/system/files/members/standard/foundational/SDTM_v2.0.pdf",
      "permitted_variations": [],
      "prohibited_behavior": [],
      "required_behavior": null,
      "required_inputs": [],
      "review_status": "CANDIDATE",
      "rule_id": "sdtm-model:633945ebf6222552",
      "rule_type": "OPERATIVE_RULE",
      "scope": {
        "candidate_kind": "prose_requirement",
        "dataset_scope": [],
        "datasets": [],
        "structure_scope": [],
        "variable_scope": [
          "C49558",
          "DOMAIN"
        ],
        "variables": [
          "C49558",
          "DOMAIN"
        ]
      },
      "semantic_reconstruction_status": "CANDIDATE_RECONSTRUCTED",
      "source_hash": "11b6538be0b01812384131d2f42a2d1869ed66052793b98c485d39104801735e",
      "source_section_classification": "OPERATIVE_RULE",
      "standard_id": "sdtm-model",
      "standard_name": "Study Data Tabulation Model",
      "standard_version": "2.0",
      "structure_scope": [],
      "validation_requirement": "2-character abbreviation, which must be \"DM\".",
      "validation_requirements": [
        "2-character abbreviation, which must be \"DM\"."
      ],
      "variable_scope": [
        "C49558",
        "DOMAIN"
      ]
    },
    {
      "applicability_conditions": [],
      "classification": "NON_NORMATIVE",
      "classification_status": "RESOLVED",
      "conformance_metadata": null,
      "dataset_scope": [],
      "evidence_locator": {
        "duplicate_locators": [],
        "extraction_timestamp": "2026-08-10T08:11:23+00:00",
        "page": 40,
        "parser_compiler_version": "m3r-1",
        "section": null,
        "source_binding_status": "SOURCE_BOUND",
        "source_excerpt": "4 SUBJID Subject Identifier for the Study Char Topic Subject identifier, which must be unique within the study. Often the ID of the subject as recorded on a CRF."
      },
      "exact_source_excerpt": "4 SUBJID Subject Identifier for the Study Char Topic Subject identifier, which must be unique within the study. Often the ID of the subject as recorded on a CRF.",
      "excluded_reason": null,
      "expected_outputs": [],
      "extraction_status": "CANDIDATE_RULE",
      "grain": null,
      "keys": [],
      "local_relative_source_path": "SDTM_v2.0.pdf",
      "normalized_atomic_requirement": "4 SUBJID Subject Identifier for the Study Char Topic Subject identifier, which must be unique within the study.",
      "normative_strength": "NON_NORMATIVE",
      "official_url": "https://www.cdisc.org/system/files/members/standard/foundational/SDTM_v2.0.pdf",
      "permitted_variations": [],
      "prohibited_behavior": [],
      "required_behavior": null,
      "required_inputs": [],
      "review_status": "CANDIDATE",
      "rule_id": "sdtm-model:63d02820a3c5d2e4",
      "rule_type": "OPERATIVE_RULE",
      "scope": {
        "candidate_kind": "prose_requirement",
        "dataset_scope": [],
        "datasets": [],
        "structure_scope": [],
        "variable_scope": [
          "CRF",
          "SUBJID"
        ],
        "variables": [
          "CRF",
          "SUBJID"
        ]
      },
      "semantic_reconstruction_status": "CANDIDATE_RECONSTRUCTED",
      "source_hash": "11b6538be0b01812384131d2f42a2d1869ed66052793b98c485d39104801735e",
      "source_section_classification": "OPERATIVE_RULE",
      "standard_id": "sdtm-model",
      "standard_name": "Study Data Tabulation Model",
      "standard_version": "2.0",
      "structure_scope": [],
      "validation_requirement": "4 SUBJID Subject Identifier for the Study Char Topic Subject identifier, which must be unique within the study.",
      "validation_requirements": [
        "4 SUBJID Subject Identifier for the Study Char Topic Subject identifier, which must be unique within the study."
      ],
      "variable_scope": [
        "CRF",
        "SUBJID"
      ]
    },
    {
      "applicability_conditions": [
        "Should be populated in Demographics when repro paths have been defined in this domain."
      ],
      "classification": "NON_NORMATIVE",
      "classification_status": "RESOLVED",
      "conformance_metadata": null,
      "dataset_scope": [],
      "evidence_locator": {
        "duplicate_locators": [],
        "extraction_timestamp": "2026-08-10T08:11:23+00:00",
        "page": 55,
        "parser_compiler_version": "m3r-1",
        "section": null,
        "source_binding_status": "SOURCE_BOUND",
        "source_excerpt": "2 DOMAIN Domain Abbreviation Char Identifier C49558 An abbreviation for a collection of observations, with a topic-specific commonality. 2-character abbreviation, which must be \"TP\". 3 RPATHCD Planned Repro Path Code Char Topic Not in human clinical trials C170503 A short sequence of characters that represents the planned reproductive path to which the subject was assigned. Limited to 20 characters. Should be popu..."
      },
      "exact_source_excerpt": "2 DOMAIN Domain Abbreviation Char Identifier C49558 An abbreviation for a collection of observations, with a topic-specific commonality. 2-character abbreviation, which must be \"TP\". 3 RPATHCD Planned Repro Path Code Char Topic Not in human clinical trials C170503 A short sequence of characters that represents the planned reproductive path to which the subject was assigned. Limited to 20 characters. Should be populated in Demographics when repro paths have been defined in this domain.",
      "excluded_reason": null,
      "expected_outputs": [],
      "extraction_status": "CANDIDATE_RULE",
      "grain": null,
      "keys": [
        "C49558"
      ],
      "local_relative_source_path": "SDTM_v2.0.pdf",
      "normalized_atomic_requirement": "2-character abbreviation, which must be \"TP\".",
      "normative_strength": "NON_NORMATIVE",
      "official_url": "https://www.cdisc.org/system/files/members/standard/foundational/SDTM_v2.0.pdf",
      "permitted_variations": [
        "Should be populated in Demographics when repro paths have been defined in this domain."
      ],
      "prohibited_behavior": [],
      "required_behavior": null,
      "required_inputs": [],
      "review_status": "CANDIDATE",
      "rule_id": "sdtm-model:6b2997914344a066",
      "rule_type": "OPERATIVE_RULE",
      "scope": {
        "candidate_kind": "prose_requirement",
        "dataset_scope": [],
        "datasets": [],
        "structure_scope": [],
        "variable_scope": [
          "C170503",
          "C49558",
          "DOMAIN",
          "RPATHCD"
        ],
        "variables": [
          "C170503",
          "C49558",
          "DOMAIN",
          "RPATHCD"
        ]
      },
      "semantic_reconstruction_status": "CANDIDATE_RECONSTRUCTED",
      "source_hash": "11b6538be0b01812384131d2f42a2d1869ed66052793b98c485d39104801735e",
      "source_section_classification": "OPERATIVE_RULE",
      "standard_id": "sdtm-model",
      "standard_name": "Study Data Tabulation Model",
      "standard_version": "2.0",
      "structure_scope": [],
      "validation_requirement": "2-character abbreviation, which must be \"TP\".",
      "validation_requirements": [
        "2-character abbreviation, which must be \"TP\"."
      ],
      "variable_scope": [
        "C170503",
        "C49558",
        "DOMAIN",
        "RPATHCD"
      ]
    },
    {
      "applicability_conditions": [],
      "classification": "NON_NORMATIVE",
      "classification_status": "RESOLVED",
      "conformance_metadata": null,
      "dataset_scope": [],
      "evidence_locator": {
        "duplicate_locators": [],
        "extraction_timestamp": "2026-08-10T08:11:23+00:00",
        "page": 52,
        "parser_compiler_version": "m3r-1",
        "section": null,
        "source_binding_status": "SOURCE_BOUND",
        "source_excerpt": "6 ETCD Element Code Char Record Qualifier ETCD (the companion to ELEMENT) is limited to 8 characters and does not have special character restrictions. These values should be short for ease of use in programming, but it is not expected that ETCD will need to serve as a variable name."
      },
      "exact_source_excerpt": "6 ETCD Element Code Char Record Qualifier ETCD (the companion to ELEMENT) is limited to 8 characters and does not have special character restrictions. These values should be short for ease of use in programming, but it is not expected that ETCD will need to serve as a variable name.",
      "excluded_reason": null,
      "expected_outputs": [],
      "extraction_status": "CANDIDATE_RULE",
      "grain": null,
      "keys": [],
      "local_relative_source_path": "SDTM_v2.0.pdf",
      "normalized_atomic_requirement": "These values should be short for ease of use in programming, but it is not expected that ETCD will need to serve as a variable name.",
      "normative_strength": "NON_NORMATIVE",
      "official_url": "https://www.cdisc.org/system/files/members/standard/foundational/SDTM_v2.0.pdf",
      "permitted_variations": [
        "These values should be short for ease of use in programming, but it is not expected that ETCD will need to serve as a variable name."
      ],
      "prohibited_behavior": [],
      "required_behavior": null,
      "required_inputs": [],
      "review_status": "CANDIDATE",
      "rule_id": "sdtm-model:6bcf1f4f9c4a13e3",
      "rule_type": "OPERATIVE_RULE",
      "scope": {
        "candidate_kind": "variable_requirement",
        "dataset_scope": [],
        "datasets": [],
        "structure_scope": [],
        "variable_scope": [
          "ELEMENT",
          "ETCD"
        ],
        "variables": [
          "ELEMENT",
          "ETCD"
        ]
      },
      "semantic_reconstruction_status": "CANDIDATE_RECONSTRUCTED",
      "source_hash": "11b6538be0b01812384131d2f42a2d1869ed66052793b98c485d39104801735e",
      "source_section_classification": "OPERATIVE_RULE",
      "standard_id": "sdtm-model",
      "standard_name": "Study Data Tabulation Model",
      "standard_version": "2.0",
      "structure_scope": [],
      "validation_requirement": null,
      "validation_requirements": [],
      "variable_scope": [
        "ELEMENT",
        "ETCD"
      ]
    },
    {
      "applicability_conditions": [],
      "classification": "NON_NORMATIVE",
      "classification_status": "RESOLVED",
      "conformance_metadata": null,
      "dataset_scope": [],
      "evidence_locator": {
        "duplicate_locators": [],
        "extraction_timestamp": "2026-08-10T08:11:23+00:00",
        "page": 51,
        "parser_compiler_version": "m3r-1",
        "section": null,
        "source_binding_status": "SOURCE_BOUND",
        "source_excerpt": "2 DOMAIN Domain Abbreviation Char Identifier C49558 An abbreviation for a collection of observations, with a topic-specific commonality. 2-character abbreviation, which must be \"TE\". 3 ETCD Element Code Char Topic ETCD (the companion to ELEMENT) is limited to 8 characters and does not have special character"
      },
      "exact_source_excerpt": "2 DOMAIN Domain Abbreviation Char Identifier C49558 An abbreviation for a collection of observations, with a topic-specific commonality. 2-character abbreviation, which must be \"TE\". 3 ETCD Element Code Char Topic ETCD (the companion to ELEMENT) is limited to 8 characters and does not have special character",
      "excluded_reason": null,
      "expected_outputs": [],
      "extraction_status": "CANDIDATE_RULE",
      "grain": null,
      "keys": [
        "C49558"
      ],
      "local_relative_source_path": "SDTM_v2.0.pdf",
      "normalized_atomic_requirement": "2-character abbreviation, which must be \"TE\".",
      "normative_strength": "NON_NORMATIVE",
      "official_url": "https://www.cdisc.org/system/files/members/standard/foundational/SDTM_v2.0.pdf",
      "permitted_variations": [],
      "prohibited_behavior": [],
      "required_behavior": null,
      "required_inputs": [],
      "review_status": "CANDIDATE",
      "rule_id": "sdtm-model:716ea955f37fd61f",
      "rule_type": "OPERATIVE_RULE",
      "scope": {
        "candidate_kind": "prose_requirement",
        "dataset_scope": [],
        "datasets": [],
        "structure_scope": [],
        "variable_scope": [
          "C49558",
          "DOMAIN",
          "ELEMENT",
          "ETCD"
        ],
        "variables": [
          "C49558",
          "DOMAIN",
          "ELEMENT",
          "ETCD"
        ]
      },
      "semantic_reconstruction_status": "CANDIDATE_RECONSTRUCTED",
      "source_hash": "11b6538be0b01812384131d2f42a2d1869ed66052793b98c485d39104801735e",
      "source_section_classification": "OPERATIVE_RULE",
      "standard_id": "sdtm-model",
      "standard_name": "Study Data Tabulation Model",
      "standard_version": "2.0",
      "structure_scope": [],
      "validation_requirement": "2-character abbreviation, which must be \"TE\".",
      "validation_requirements": [
        "2-character abbreviation, which must be \"TE\"."
      ],
      "variable_scope": [
        "C49558",
        "DOMAIN",
        "ELEMENT",
        "ETCD"
      ]
    },
    {
      "applicability_conditions": [
        "This variable would not be needed when information on planned assessments is provided, such as when the Trial Visits (TV) and Subject Visits (SV) domains are used."
      ],
      "classification": "NON_NORMATIVE",
      "classification_status": "RESOLVED",
      "conformance_metadata": null,
      "dataset_scope": [],
      "evidence_locator": {
        "duplicate_locators": [],
        "extraction_timestamp": "2026-08-10T08:11:23+00:00",
        "page": 32,
        "parser_compiler_version": "m3r-1",
        "section": null,
        "source_binding_status": "SOURCE_BOUND",
        "source_excerpt": "97 -- USCHFL Unscheduled Flag Char Record Qualifier Not in human clinical trials C170510 An indication that the performed test or observation was done at a time that was not planned. If a test or observation was performed based upon a schedule defined in the protocol, this flag should be null. Expected values are \"Y\" or null. This variable would not be needed when information on planned assessments is provided, su..."
      },
      "exact_source_excerpt": "97 -- USCHFL Unscheduled Flag Char Record Qualifier Not in human clinical trials C170510 An indication that the performed test or observation was done at a time that was not planned. If a test or observation was performed based upon a schedule defined in the protocol, this flag should be null. Expected values are \"Y\" or null. This variable would not be needed when information on planned assessments is provided, such as when the Trial Visits (TV) and Subject Visits (SV) domains are used.",
      "excluded_reason": null,
      "expected_outputs": [],
      "extraction_status": "CANDIDATE_RULE",
      "grain": null,
      "keys": [],
      "local_relative_source_path": "SDTM_v2.0.pdf",
      "normalized_atomic_requirement": "If a test or observation was performed based upon a schedule defined in the protocol, this flag should be null.",
      "normative_strength": "NON_NORMATIVE",
      "official_url": "https://www.cdisc.org/system/files/members/standard/foundational/SDTM_v2.0.pdf",
      "permitted_variations": [
        "If a test or observation was performed based upon a schedule defined in the protocol, this flag should be null."
      ],
      "prohibited_behavior": [],
      "required_behavior": null,
      "required_inputs": [],
      "review_status": "CANDIDATE",
      "rule_id": "sdtm-model:729d211fe725b3f0",
      "rule_type": "OPERATIVE_RULE",
      "scope": {
        "candidate_kind": "variable_requirement",
        "dataset_scope": [],
        "datasets": [],
        "structure_scope": [],
        "variable_scope": [
          "C170510",
          "USCHFL"
        ],
        "variables": [
          "C170510",
          "USCHFL"
        ]
      },
      "semantic_reconstruction_status": "CANDIDATE_RECONSTRUCTED",
      "source_hash": "11b6538be0b01812384131d2f42a2d1869ed66052793b98c485d39104801735e",
      "source_section_classification": "OPERATIVE_RULE",
      "standard_id": "sdtm-model",
      "standard_name": "Study Data Tabulation Model",
      "standard_version": "2.0",
      "structure_scope": [],
      "validation_requirement": null,
      "validation_requirements": [],
      "variable_scope": [
        "C170510",
        "USCHFL"
      ]
    },
    {
      "applicability_conditions": [
        "28 --TPT Planned Time Point Name Char Timing C171029 The description of the time when a protocol-defined activity is planned to occur, used for study data tabulation.",
        "\"PREDOSE\", \"1 HOUR POST-DOSE\" 29 --TPTNUM Planned Time Point Number Num Timing C82545 The numeric identifier of when an observation is planned to occur.",
        "This variable is useful where there are repetitive measures."
      ],
      "classification": "NON_NORMATIVE",
      "classification_status": "RESOLVED",
      "conformance_metadata": null,
      "dataset_scope": [],
      "evidence_locator": {
        "duplicate_locators": [],
        "extraction_timestamp": "2026-08-10T08:11:23+00:00",
        "page": 37,
        "parser_compiler_version": "m3r-1",
        "section": null,
        "source_binding_status": "SOURCE_BOUND",
        "source_excerpt": "28 --TPT Planned Time Point Name Char Timing C171029 The description of the time when a protocol-defined activity is planned to occur, used for study data tabulation. This may be represented as an elapsed time relative to a fixed reference point (e.g., time since last dose). See --TPTNUM and -- TPTREF. \"PREDOSE\", \"1 HOUR POST-DOSE\" 29 --TPTNUM Planned Time Point Number Num Timing C82545 The numeric identifier of w..."
      },
      "exact_source_excerpt": "28 --TPT Planned Time Point Name Char Timing C171029 The description of the time when a protocol-defined activity is planned to occur, used for study data tabulation. This may be represented as an elapsed time relative to a fixed reference point (e.g., time since last dose). See --TPTNUM and -- TPTREF. \"PREDOSE\", \"1 HOUR POST-DOSE\" 29 --TPTNUM Planned Time Point Number Num Timing C82545 The numeric identifier of when an observation is planned to occur. Used in sorting. 30 --ELTM Planned Elapsed Time from Time Point Ref Char ISO 8601 duration Timing C170994 The interval of time between a planned time point and a fixed reference point, represented in a standardized character format. The fixed reference point is in -- TPTREF. This variable is useful where there are repetitive measures. Not a clock time or a date/time variable, but an interval.",
      "excluded_reason": null,
      "expected_outputs": [],
      "extraction_status": "CANDIDATE_RULE",
      "grain": null,
      "keys": [],
      "local_relative_source_path": "SDTM_v2.0.pdf",
      "normalized_atomic_requirement": "This may be represented as an elapsed time relative to a fixed reference point (e.g., time since last dose).",
      "normative_strength": "NON_NORMATIVE",
      "official_url": "https://www.cdisc.org/system/files/members/standard/foundational/SDTM_v2.0.pdf",
      "permitted_variations": [
        "This may be represented as an elapsed time relative to a fixed reference point (e.g., time since last dose)."
      ],
      "prohibited_behavior": [],
      "required_behavior": null,
      "required_inputs": [],
      "review_status": "CANDIDATE",
      "rule_id": "sdtm-model:76481be5bcdd917b",
      "rule_type": "OPERATIVE_RULE",
      "scope": {
        "candidate_kind": "variable_requirement",
        "dataset_scope": [],
        "datasets": [],
        "structure_scope": [],
        "variable_scope": [
          "C170994",
          "C171029",
          "C82545",
          "DOSE",
          "ELTM",
          "HOUR",
          "ISO",
          "POST",
          "PREDOSE",
          "TPT",
          "TPTNUM",
          "TPTREF"
        ],
        "variables": [
          "C170994",
          "C171029",
          "C82545",
          "DOSE",
          "ELTM",
          "HOUR",
          "ISO",
          "POST",
          "PREDOSE",
          "TPT",
          "TPTNUM",
          "TPTREF"
        ]
      },
      "semantic_reconstruction_status": "CANDIDATE_RECONSTRUCTED",
      "source_hash": "11b6538be0b01812384131d2f42a2d1869ed66052793b98c485d39104801735e",
      "source_section_classification": "OPERATIVE_RULE",
      "standard_id": "sdtm-model",
      "standard_name": "Study Data Tabulation Model",
      "standard_version": "2.0",
      "structure_scope": [],
      "validation_requirement": null,
      "validation_requirements": [],
      "variable_scope": [
        "C170994",
        "C171029",
        "C82545",
        "DOSE",
        "ELTM",
        "HOUR",
        "ISO",
        "POST",
        "PREDOSE",
        "TPT",
        "TPTNUM",
        "TPTREF"
      ]
    },
    {
      "applicability_conditions": [],
      "classification": "NON_NORMATIVE",
      "classification_status": "RESOLVED",
      "conformance_metadata": null,
      "dataset_scope": [],
      "evidence_locator": {
        "duplicate_locators": [],
        "extraction_timestamp": "2026-08-10T08:11:23+00:00",
        "page": 60,
        "parser_compiler_version": "m3r-1",
        "section": null,
        "source_binding_status": "SOURCE_BOUND",
        "source_excerpt": "4 ACGRPID Group ID Char Identifier Used to tie together a group of related records. 5 ACPARMCD Challenge Agent Parameter Short Name Char Topic ACPARMCD (the companion to ACPARM) is limited to 8 characters and does not have special character restrictions. These values should be short for ease of use in programming, but it is not expected that ACPARMCD will need to serve as variable names."
      },
      "exact_source_excerpt": "4 ACGRPID Group ID Char Identifier Used to tie together a group of related records. 5 ACPARMCD Challenge Agent Parameter Short Name Char Topic ACPARMCD (the companion to ACPARM) is limited to 8 characters and does not have special character restrictions. These values should be short for ease of use in programming, but it is not expected that ACPARMCD will need to serve as variable names.",
      "excluded_reason": null,
      "expected_outputs": [],
      "extraction_status": "CANDIDATE_RULE",
      "grain": null,
      "keys": [],
      "local_relative_source_path": "SDTM_v2.0.pdf",
      "normalized_atomic_requirement": "These values should be short for ease of use in programming, but it is not expected that ACPARMCD will need to serve as variable names.",
      "normative_strength": "NON_NORMATIVE",
      "official_url": "https://www.cdisc.org/system/files/members/standard/foundational/SDTM_v2.0.pdf",
      "permitted_variations": [
        "These values should be short for ease of use in programming, but it is not expected that ACPARMCD will need to serve as variable names."
      ],
      "prohibited_behavior": [],
      "required_behavior": null,
      "required_inputs": [],
      "review_status": "CANDIDATE",
      "rule_id": "sdtm-model:7847d9493538b545",
      "rule_type": "OPERATIVE_RULE",
      "scope": {
        "candidate_kind": "variable_requirement",
        "dataset_scope": [],
        "datasets": [],
        "structure_scope": [],
        "variable_scope": [
          "ACGRPID",
          "ACPARM",
          "ACPARMCD"
        ],
        "variables": [
          "ACGRPID",
          "ACPARM",
          "ACPARMCD"
        ]
      },
      "semantic_reconstruction_status": "CANDIDATE_RECONSTRUCTED",
      "source_hash": "11b6538be0b01812384131d2f42a2d1869ed66052793b98c485d39104801735e",
      "source_section_classification": "OPERATIVE_RULE",
      "standard_id": "sdtm-model",
      "standard_name": "Study Data Tabulation Model",
      "standard_version": "2.0",
      "structure_scope": [],
      "validation_requirement": null,
      "validation_requirements": [],
      "variable_scope": [
        "ACGRPID",
        "ACPARM",
        "ACPARMCD"
      ]
    },
    {
      "applicability_conditions": [],
      "classification": "NON_NORMATIVE",
      "classification_status": "RESOLVED",
      "conformance_metadata": null,
      "dataset_scope": [],
      "evidence_locator": {
        "duplicate_locators": [],
        "extraction_timestamp": "2026-08-10T08:11:23+00:00",
        "page": 14,
        "parser_compiler_version": "m3r-1",
        "section": null,
        "source_binding_status": "SOURCE_BOUND",
        "source_excerpt": "34 --PSTRG Pharmaceutical Strength Num Record Qualifier C53294 The amount of active ingredient per unit of pharmaceutical dosage form. \"50\", \"300\" 35 -- PSTRGU Pharmaceutical Strength Units Char Variable Qualifier --PSTRG C117055 The unit of measure for the amount of active ingredient per unit of pharmaceutical dosage form, using standardized values. Unit for --PSTRG. \"mg/TABLET\", \"mg/mL\" 36 --TRTV Treatment Vehic..."
      },
      "exact_source_excerpt": "34 --PSTRG Pharmaceutical Strength Num Record Qualifier C53294 The amount of active ingredient per unit of pharmaceutical dosage form. \"50\", \"300\" 35 -- PSTRGU Pharmaceutical Strength Units Char Variable Qualifier --PSTRG C117055 The unit of measure for the amount of active ingredient per unit of pharmaceutical dosage form, using standardized values. Unit for --PSTRG. \"mg/TABLET\", \"mg/mL\" 36 --TRTV Treatment Vehicle Char Record Qualifier C927 A carrier or inert medium in which a medicinally active agent is administered. \"SALINE\" 37 --VAMT Treatment Vehicle Amount Num Record Qualifier C82553 Amount of the prepared product (treatment plus vehicle) administered. Note: Should not be diluent amount alone.",
      "excluded_reason": null,
      "expected_outputs": [],
      "extraction_status": "CANDIDATE_RULE",
      "grain": null,
      "keys": [],
      "local_relative_source_path": "SDTM_v2.0.pdf",
      "normalized_atomic_requirement": "Note: Should not be diluent amount alone.",
      "normative_strength": "NON_NORMATIVE",
      "official_url": "https://www.cdisc.org/system/files/members/standard/foundational/SDTM_v2.0.pdf",
      "permitted_variations": [
        "Note: Should not be diluent amount alone."
      ],
      "prohibited_behavior": [],
      "required_behavior": null,
      "required_inputs": [],
      "review_status": "CANDIDATE",
      "rule_id": "sdtm-model:78bdc84fcbe43108",
      "rule_type": "OPERATIVE_RULE",
      "scope": {
        "candidate_kind": "variable_requirement",
        "dataset_scope": [],
        "datasets": [],
        "structure_scope": [],
        "variable_scope": [
          "C117055",
          "C53294",
          "C82553",
          "C927",
          "PSTRG",
          "PSTRGU",
          "SALINE",
          "TABLET",
          "TRTV",
          "VAMT"
        ],
        "variables": [
          "C117055",
          "C53294",
          "C82553",
          "C927",
          "PSTRG",
          "PSTRGU",
          "SALINE",
          "TABLET",
          "TRTV",
          "VAMT"
        ]
      },
      "semantic_reconstruction_status": "CANDIDATE_RECONSTRUCTED",
      "source_hash": "11b6538be0b01812384131d2f42a2d1869ed66052793b98c485d39104801735e",
      "source_section_classification": "OPERATIVE_RULE",
      "standard_id": "sdtm-model",
      "standard_name": "Study Data Tabulation Model",
      "standard_version": "2.0",
      "structure_scope": [],
      "validation_requirement": null,
      "validation_requirements": [],
      "variable_scope": [
        "C117055",
        "C53294",
        "C82553",
        "C927",
        "PSTRG",
        "PSTRGU",
        "SALINE",
        "TABLET",
        "TRTV",
        "VAMT"
      ]
    },
    {
      "applicability_conditions": [
        "The epoch associated with an observation is determined by the start date or start date and time of the observation, or the date/time of collection if start date/time is not collected (see Section 5.1.1.2, Trial Arms)."
      ],
      "classification": "NON_NORMATIVE",
      "classification_status": "RESOLVED",
      "conformance_metadata": null,
      "dataset_scope": [],
      "evidence_locator": {
        "duplicate_locators": [],
        "extraction_timestamp": "2026-08-10T08:11:23+00:00",
        "page": 35,
        "parser_compiler_version": "m3r-1",
        "section": null,
        "source_binding_status": "SOURCE_BOUND",
        "source_excerpt": "3 VISITDY Planned Study Day of Visit Num Timing C171011 The planned study day of a clinical encounter relative to the sponsor-defined reference start date. Should be an integer. 4 TAETORD Planned Order of Element Within Arm Num Timing C83438 An assigned numeric identifier that gives the planned order of the element within the trial arm of the study. See Section 5.1.1.2, Trial Arms. 5 EPOCH Epoch Char Timing C71738..."
      },
      "exact_source_excerpt": "3 VISITDY Planned Study Day of Visit Num Timing C171011 The planned study day of a clinical encounter relative to the sponsor-defined reference start date. Should be an integer. 4 TAETORD Planned Order of Element Within Arm Num Timing C83438 An assigned numeric identifier that gives the planned order of the element within the trial arm of the study. See Section 5.1.1.2, Trial Arms. 5 EPOCH Epoch Char Timing C71738 A time period defined in the protocol with a study-specific purpose. The epoch associated with an observation is determined by the start date or start date and time of the observation, or the date/time of collection if start date/time is not collected (see Section 5.1.1.2, Trial Arms).",
      "excluded_reason": null,
      "expected_outputs": [],
      "extraction_status": "CANDIDATE_RULE",
      "grain": null,
      "keys": [],
      "local_relative_source_path": "SDTM_v2.0.pdf",
      "normalized_atomic_requirement": "Should be an integer.",
      "normative_strength": "NON_NORMATIVE",
      "official_url": "https://www.cdisc.org/system/files/members/standard/foundational/SDTM_v2.0.pdf",
      "permitted_variations": [
        "Should be an integer."
      ],
      "prohibited_behavior": [],
      "required_behavior": null,
      "required_inputs": [],
      "review_status": "CANDIDATE",
      "rule_id": "sdtm-model:7acce65bb98bdd6c",
      "rule_type": "OPERATIVE_RULE",
      "scope": {
        "candidate_kind": "prose_requirement",
        "dataset_scope": [],
        "datasets": [],
        "structure_scope": [],
        "variable_scope": [
          "C171011",
          "C71738",
          "C83438",
          "EPOCH",
          "TAETORD",
          "VISITDY"
        ],
        "variables": [
          "C171011",
          "C71738",
          "C83438",
          "EPOCH",
          "TAETORD",
          "VISITDY"
        ]
      },
      "semantic_reconstruction_status": "CANDIDATE_RECONSTRUCTED",
      "source_hash": "11b6538be0b01812384131d2f42a2d1869ed66052793b98c485d39104801735e",
      "source_section_classification": "OPERATIVE_RULE",
      "standard_id": "sdtm-model",
      "standard_name": "Study Data Tabulation Model",
      "standard_version": "2.0",
      "structure_scope": [],
      "validation_requirement": null,
      "validation_requirements": [],
      "variable_scope": [
        "C171011",
        "C71738",
        "C83438",
        "EPOCH",
        "TAETORD",
        "VISITDY"
      ]
    },
    {
      "applicability_conditions": [],
      "classification": "NON_NORMATIVE",
      "classification_status": "RESOLVED",
      "conformance_metadata": null,
      "dataset_scope": [],
      "evidence_locator": {
        "duplicate_locators": [],
        "extraction_timestamp": "2026-08-10T08:11:23+00:00",
        "page": 23,
        "parser_compiler_version": "m3r-1",
        "section": null,
        "source_binding_status": "SOURCE_BOUND",
        "source_excerpt": "14 -- GATDEF Gate Definition Char Record Qualifier CP domain only The text string identifying the set of parameters and the order in which they are applied to define the gating strategy. In practice, a series of 2- dimensional subgates based on 2 different cell characteristics (i.e., markers/indicators/physical properties) are most often combined until the cell population of interest is sufficiently resolved (i.e...."
      },
      "exact_source_excerpt": "14 -- GATDEF Gate Definition Char Record Qualifier CP domain only The text string identifying the set of parameters and the order in which they are applied to define the gating strategy. In practice, a series of 2- dimensional subgates based on 2 different cell characteristics (i.e., markers/indicators/physical properties) are most often combined until the cell population of interest is sufficiently resolved (i.e., electronically isolated) from other cell populations contained within the specimen. For complex analyses, differences in gating strategies can produce subtle differences in results obtained for a test. To ensure nuances important for accurately interpreting the data are accounted for and which arise from the use of different gating strategies, it is often necessary to qualify the test in terms of the gating strategy. For some purposes, however, and at the discretion of the sponsor, only the ultimate or penultimate gate is identified. When specifying the gating strategy in CPGATDEF, each subgate should be listed in the order it was applied and separated from the next sub-gate using the vertical line or pipe character (\"|\").",
      "excluded_reason": null,
      "expected_outputs": [],
      "extraction_status": "CANDIDATE_RULE",
      "grain": null,
      "keys": [],
      "local_relative_source_path": "SDTM_v2.0.pdf",
      "normalized_atomic_requirement": "When specifying the gating strategy in CPGATDEF, each subgate should be listed in the order it was applied and separated from the next sub-gate using the vertical line or pipe character (\"|\").",
      "normative_strength": "NON_NORMATIVE",
      "official_url": "https://www.cdisc.org/system/files/members/standard/foundational/SDTM_v2.0.pdf",
      "permitted_variations": [
        "For complex analyses, differences in gating strategies can produce subtle differences in results obtained for a test.",
        "When specifying the gating strategy in CPGATDEF, each subgate should be listed in the order it was applied and separated from the next sub-gate using the vertical line or pipe character (\"|\")."
      ],
      "prohibited_behavior": [],
      "required_behavior": null,
      "required_inputs": [],
      "review_status": "CANDIDATE",
      "rule_id": "sdtm-model:7d133fcf606ecd57",
      "rule_type": "OPERATIVE_RULE",
      "scope": {
        "candidate_kind": "variable_requirement",
        "dataset_scope": [],
        "datasets": [],
        "structure_scope": [],
        "variable_scope": [
          "CPGATDEF",
          "GATDEF"
        ],
        "variables": [
          "CPGATDEF",
          "GATDEF"
        ]
      },
      "semantic_reconstruction_status": "CANDIDATE_RECONSTRUCTED",
      "source_hash": "11b6538be0b01812384131d2f42a2d1869ed66052793b98c485d39104801735e",
      "source_section_classification": "OPERATIVE_RULE",
      "standard_id": "sdtm-model",
      "standard_name": "Study Data Tabulation Model",
      "standard_version": "2.0",
      "structure_scope": [],
      "validation_requirement": null,
      "validation_requirements": [],
      "variable_scope": [
        "CPGATDEF",
        "GATDEF"
      ]
    },
    {
      "applicability_conditions": [
        "12 --RECID Invariant Record Identifier Char Identifier Identifier for a record that is unique within a domain for a study and that remains invariant through subsequent versions of the dataset, even if the content of the record is modified."
      ],
      "classification": "NON_NORMATIVE",
      "classification_status": "RESOLVED",
      "conformance_metadata": null,
      "dataset_scope": [],
      "evidence_locator": {
        "duplicate_locators": [],
        "extraction_timestamp": "2026-08-10T08:11:23+00:00",
        "page": 34,
        "parser_compiler_version": "m3r-1",
        "section": null,
        "source_binding_status": "SOURCE_BOUND",
        "source_excerpt": "11 --REFID Reference ID Char Identifier C82531 A sequence of characters used to uniquely identify a source of information. A lab specimen ID, the UUID for an ECG waveform or a medical image. 12 --RECID Invariant Record Identifier Char Identifier Identifier for a record that is unique within a domain for a study and that remains invariant through subsequent versions of the dataset, even if the content of the record..."
      },
      "exact_source_excerpt": "11 --REFID Reference ID Char Identifier C82531 A sequence of characters used to uniquely identify a source of information. A lab specimen ID, the UUID for an ECG waveform or a medical image. 12 --RECID Invariant Record Identifier Char Identifier Identifier for a record that is unique within a domain for a study and that remains invariant through subsequent versions of the dataset, even if the content of the record is modified. When a record is deleted, this value must not be reused to identify another record in either the current or future versions of the domain.",
      "excluded_reason": null,
      "expected_outputs": [],
      "extraction_status": "CANDIDATE_RULE",
      "grain": null,
      "keys": [
        "C82531"
      ],
      "local_relative_source_path": "SDTM_v2.0.pdf",
      "normalized_atomic_requirement": "When a record is deleted, this value must not be reused to identify another record in either the current or future versions of the domain.",
      "normative_strength": "NON_NORMATIVE",
      "official_url": "https://www.cdisc.org/system/files/members/standard/foundational/SDTM_v2.0.pdf",
      "permitted_variations": [],
      "prohibited_behavior": [
        "When a record is deleted, this value must not be reused to identify another record in either the current or future versions of the domain."
      ],
      "required_behavior": null,
      "required_inputs": [],
      "review_status": "CANDIDATE",
      "rule_id": "sdtm-model:7d9e7b8bb342af70",
      "rule_type": "OPERATIVE_RULE",
      "scope": {
        "candidate_kind": "prose_requirement",
        "dataset_scope": [],
        "datasets": [],
        "structure_scope": [],
        "variable_scope": [
          "C82531",
          "ECG",
          "RECID",
          "REFID",
          "UUID"
        ],
        "variables": [
          "C82531",
          "ECG",
          "RECID",
          "REFID",
          "UUID"
        ]
      },
      "semantic_reconstruction_status": "CANDIDATE_RECONSTRUCTED",
      "source_hash": "11b6538be0b01812384131d2f42a2d1869ed66052793b98c485d39104801735e",
      "source_section_classification": "OPERATIVE_RULE",
      "standard_id": "sdtm-model",
      "standard_name": "Study Data Tabulation Model",
      "standard_version": "2.0",
      "structure_scope": [],
      "validation_requirement": "When a record is deleted, this value must not be reused to identify another record in either the current or future versions of the domain.",
      "validation_requirements": [
        "When a record is deleted, this value must not be reused to identify another record in either the current or future versions of the domain."
      ],
      "variable_scope": [
        "C82531",
        "ECG",
        "RECID",
        "REFID",
        "UUID"
      ]
    },
    {
      "applicability_conditions": [],
      "classification": "NON_NORMATIVE",
      "classification_status": "RESOLVED",
      "conformance_metadata": null,
      "dataset_scope": [],
      "evidence_locator": {
        "duplicate_locators": [],
        "extraction_timestamp": "2026-08-10T08:11:23+00:00",
        "page": 56,
        "parser_compiler_version": "m3r-1",
        "section": null,
        "source_binding_status": "SOURCE_BOUND",
        "source_excerpt": "6 ARMCD Planned Arm Code Char Record Qualifier C83216 A short sequence of characters that represents the planned arm to which the subject was assigned. ARMCD is limited to 20 characters and does not have special character restrictions. If the timing of visits for a trial does not depend on which Arm a subject is in, then ARMCD should be null."
      },
      "exact_source_excerpt": "6 ARMCD Planned Arm Code Char Record Qualifier C83216 A short sequence of characters that represents the planned arm to which the subject was assigned. ARMCD is limited to 20 characters and does not have special character restrictions. If the timing of visits for a trial does not depend on which Arm a subject is in, then ARMCD should be null.",
      "excluded_reason": null,
      "expected_outputs": [],
      "extraction_status": "CANDIDATE_RULE",
      "grain": null,
      "keys": [],
      "local_relative_source_path": "SDTM_v2.0.pdf",
      "normalized_atomic_requirement": "If the timing of visits for a trial does not depend on which Arm a subject is in, then ARMCD should be null.",
      "normative_strength": "NON_NORMATIVE",
      "official_url": "https://www.cdisc.org/system/files/members/standard/foundational/SDTM_v2.0.pdf",
      "permitted_variations": [
        "If the timing of visits for a trial does not depend on which Arm a subject is in, then ARMCD should be null."
      ],
      "prohibited_behavior": [],
      "required_behavior": null,
      "required_inputs": [],
      "review_status": "CANDIDATE",
      "rule_id": "sdtm-model:7e77de64b24aca33",
      "rule_type": "OPERATIVE_RULE",
      "scope": {
        "candidate_kind": "prose_requirement",
        "dataset_scope": [],
        "datasets": [],
        "structure_scope": [],
        "variable_scope": [
          "ARMCD",
          "C83216"
        ],
        "variables": [
          "ARMCD",
          "C83216"
        ]
      },
      "semantic_reconstruction_status": "CANDIDATE_RECONSTRUCTED",
      "source_hash": "11b6538be0b01812384131d2f42a2d1869ed66052793b98c485d39104801735e",
      "source_section_classification": "OPERATIVE_RULE",
      "standard_id": "sdtm-model",
      "standard_name": "Study Data Tabulation Model",
      "standard_version": "2.0",
      "structure_scope": [],
      "validation_requirement": null,
      "validation_requirements": [],
      "variable_scope": [
        "ARMCD",
        "C83216"
      ]
    },
    {
      "applicability_conditions": [],
      "classification": "NON_NORMATIVE",
      "classification_status": "RESOLVED",
      "conformance_metadata": null,
      "dataset_scope": [],
      "evidence_locator": {
        "duplicate_locators": [],
        "extraction_timestamp": "2026-08-10T08:11:23+00:00",
        "page": 62,
        "parser_compiler_version": "m3r-1",
        "section": null,
        "source_binding_status": "SOURCE_BOUND",
        "source_excerpt": "2 DOMAIN Domain Abbreviation Char Identifier C49558 An abbreviation for a collection of observations, with a topic- specific commonality. 2-character abbreviation, which must be \"OI\"."
      },
      "exact_source_excerpt": "2 DOMAIN Domain Abbreviation Char Identifier C49558 An abbreviation for a collection of observations, with a topic- specific commonality. 2-character abbreviation, which must be \"OI\".",
      "excluded_reason": null,
      "expected_outputs": [],
      "extraction_status": "CANDIDATE_RULE",
      "grain": null,
      "keys": [
        "C49558"
      ],
      "local_relative_source_path": "SDTM_v2.0.pdf",
      "normalized_atomic_requirement": "2-character abbreviation, which must be \"OI\".",
      "normative_strength": "NON_NORMATIVE",
      "official_url": "https://www.cdisc.org/system/files/members/standard/foundational/SDTM_v2.0.pdf",
      "permitted_variations": [],
      "prohibited_behavior": [],
      "required_behavior": null,
      "required_inputs": [],
      "review_status": "CANDIDATE",
      "rule_id": "sdtm-model:7f5c51140de61d58",
      "rule_type": "OPERATIVE_RULE",
      "scope": {
        "candidate_kind": "prose_requirement",
        "dataset_scope": [],
        "datasets": [],
        "structure_scope": [],
        "variable_scope": [
          "C49558",
          "DOMAIN"
        ],
        "variables": [
          "C49558",
          "DOMAIN"
        ]
      },
      "semantic_reconstruction_status": "CANDIDATE_RECONSTRUCTED",
      "source_hash": "11b6538be0b01812384131d2f42a2d1869ed66052793b98c485d39104801735e",
      "source_section_classification": "OPERATIVE_RULE",
      "standard_id": "sdtm-model",
      "standard_name": "Study Data Tabulation Model",
      "standard_version": "2.0",
      "structure_scope": [],
      "validation_requirement": "2-character abbreviation, which must be \"OI\".",
      "validation_requirements": [
        "2-character abbreviation, which must be \"OI\"."
      ],
      "variable_scope": [
        "C49558",
        "DOMAIN"
      ]
    },
    {
      "applicability_conditions": [],
      "classification": "NON_NORMATIVE",
      "classification_status": "RESOLVED",
      "conformance_metadata": null,
      "dataset_scope": [],
      "evidence_locator": {
        "duplicate_locators": [],
        "extraction_timestamp": "2026-08-10T08:11:23+00:00",
        "page": 49,
        "parser_compiler_version": "m3r-1",
        "section": null,
        "source_binding_status": "SOURCE_BOUND",
        "source_excerpt": "4 SMSEQ Sequence Number Num Identifier Sequence number given to ensure uniqueness of subject records. Should be assigned to be consistent with chronological order."
      },
      "exact_source_excerpt": "4 SMSEQ Sequence Number Num Identifier Sequence number given to ensure uniqueness of subject records. Should be assigned to be consistent with chronological order.",
      "excluded_reason": null,
      "expected_outputs": [],
      "extraction_status": "CANDIDATE_RULE",
      "grain": null,
      "keys": [],
      "local_relative_source_path": "SDTM_v2.0.pdf",
      "normalized_atomic_requirement": "Should be assigned to be consistent with chronological order.",
      "normative_strength": "NON_NORMATIVE",
      "official_url": "https://www.cdisc.org/system/files/members/standard/foundational/SDTM_v2.0.pdf",
      "permitted_variations": [
        "Should be assigned to be consistent with chronological order."
      ],
      "prohibited_behavior": [],
      "required_behavior": null,
      "required_inputs": [],
      "review_status": "CANDIDATE",
      "rule_id": "sdtm-model:807062f6c0171251",
      "rule_type": "OPERATIVE_RULE",
      "scope": {
        "candidate_kind": "prose_requirement",
        "dataset_scope": [],
        "datasets": [],
        "structure_scope": [],
        "variable_scope": [
          "SMSEQ"
        ],
        "variables": [
          "SMSEQ"
        ]
      },
      "semantic_reconstruction_status": "CANDIDATE_RECONSTRUCTED",
      "source_hash": "11b6538be0b01812384131d2f42a2d1869ed66052793b98c485d39104801735e",
      "source_section_classification": "OPERATIVE_RULE",
      "standard_id": "sdtm-model",
      "standard_name": "Study Data Tabulation Model",
      "standard_version": "2.0",
      "structure_scope": [],
      "validation_requirement": null,
      "validation_requirements": [],
      "variable_scope": [
        "SMSEQ"
      ]
    },
    {
      "applicability_conditions": [
        "May be omitted if there is only 1 version."
      ],
      "classification": "NON_NORMATIVE",
      "classification_status": "RESOLVED",
      "conformance_metadata": null,
      "dataset_scope": [],
      "evidence_locator": {
        "duplicate_locators": [],
        "extraction_timestamp": "2026-08-10T08:11:23+00:00",
        "page": 59,
        "parser_compiler_version": "m3r-1",
        "section": null,
        "source_binding_status": "SOURCE_BOUND",
        "source_excerpt": "8 TIVERS Protocol Criteria Versions Char Record Qualifier The number of this version of the inclusion/exclusion criteria. May be omitted if there is only 1 version."
      },
      "exact_source_excerpt": "8 TIVERS Protocol Criteria Versions Char Record Qualifier The number of this version of the inclusion/exclusion criteria. May be omitted if there is only 1 version.",
      "excluded_reason": null,
      "expected_outputs": [],
      "extraction_status": "CANDIDATE_RULE",
      "grain": null,
      "keys": [],
      "local_relative_source_path": "SDTM_v2.0.pdf",
      "normalized_atomic_requirement": "8 TIVERS Protocol Criteria Versions Char Record Qualifier The number of this version of the inclusion/exclusion criteria. May be omitted if there is only 1 version.",
      "normative_strength": "NON_NORMATIVE",
      "official_url": "https://www.cdisc.org/system/files/members/standard/foundational/SDTM_v2.0.pdf",
      "permitted_variations": [
        "May be omitted if there is only 1 version."
      ],
      "prohibited_behavior": [],
      "required_behavior": null,
      "required_inputs": [],
      "review_status": "CANDIDATE",
      "rule_id": "sdtm-model:85ddcbe0669caabb",
      "rule_type": "OPERATIVE_RULE",
      "scope": {
        "candidate_kind": "prose_requirement",
        "dataset_scope": [],
        "datasets": [],
        "structure_scope": [],
        "variable_scope": [
          "TIVERS"
        ],
        "variables": [
          "TIVERS"
        ]
      },
      "semantic_reconstruction_status": "CANDIDATE_RECONSTRUCTED",
      "source_hash": "11b6538be0b01812384131d2f42a2d1869ed66052793b98c485d39104801735e",
      "source_section_classification": "OPERATIVE_RULE",
      "standard_id": "sdtm-model",
      "standard_name": "Study Data Tabulation Model",
      "standard_version": "2.0",
      "structure_scope": [],
      "validation_requirement": null,
      "validation_requirements": [],
      "variable_scope": [
        "TIVERS"
      ]
    },
    {
      "applicability_conditions": [],
      "classification": "NON_NORMATIVE",
      "classification_status": "RESOLVED",
      "conformance_metadata": null,
      "dataset_scope": [],
      "evidence_locator": {
        "duplicate_locators": [],
        "extraction_timestamp": "2026-08-10T08:11:23+00:00",
        "page": 17,
        "parser_compiler_version": "m3r-1",
        "section": null,
        "source_binding_status": "SOURCE_BOUND",
        "source_excerpt": "35 -- ACNDEV Action Taken with Device Char Record Qualifier C117037 An action taken with a device as the result of the event. The device may or may not be the device under study."
      },
      "exact_source_excerpt": "35 -- ACNDEV Action Taken with Device Char Record Qualifier C117037 An action taken with a device as the result of the event. The device may or may not be the device under study.",
      "excluded_reason": null,
      "expected_outputs": [],
      "extraction_status": "CANDIDATE_RULE",
      "grain": null,
      "keys": [],
      "local_relative_source_path": "SDTM_v2.0.pdf",
      "normalized_atomic_requirement": "The device may or may not be the device under study.",
      "normative_strength": "NON_NORMATIVE",
      "official_url": "https://www.cdisc.org/system/files/members/standard/foundational/SDTM_v2.0.pdf",
      "permitted_variations": [
        "The device may or may not be the device under study."
      ],
      "prohibited_behavior": [],
      "required_behavior": null,
      "required_inputs": [],
      "review_status": "CANDIDATE",
      "rule_id": "sdtm-model:871b170c54aac263",
      "rule_type": "OPERATIVE_RULE",
      "scope": {
        "candidate_kind": "prose_requirement",
        "dataset_scope": [],
        "datasets": [],
        "structure_scope": [],
        "variable_scope": [
          "ACNDEV",
          "C117037"
        ],
        "variables": [
          "ACNDEV",
          "C117037"
        ]
      },
      "semantic_reconstruction_status": "CANDIDATE_RECONSTRUCTED",
      "source_hash": "11b6538be0b01812384131d2f42a2d1869ed66052793b98c485d39104801735e",
      "source_section_classification": "OPERATIVE_RULE",
      "standard_id": "sdtm-model",
      "standard_name": "Study Data Tabulation Model",
      "standard_version": "2.0",
      "structure_scope": [],
      "validation_requirement": null,
      "validation_requirements": [],
      "variable_scope": [
        "ACNDEV",
        "C117037"
      ]
    },
    {
      "applicability_conditions": [],
      "classification": "NON_NORMATIVE",
      "classification_status": "RESOLVED",
      "conformance_metadata": null,
      "dataset_scope": [],
      "evidence_locator": {
        "duplicate_locators": [],
        "extraction_timestamp": "2026-08-10T08:11:23+00:00",
        "page": 68,
        "parser_compiler_version": "m3r-1",
        "section": null,
        "source_binding_status": "SOURCE_BOUND",
        "source_excerpt": "4 SPDEVID Sponsor Device Identifier Char Identifier Sponsor-defined identifier for the device. It must be unique for each tracked unit of the device under study, and can be at whatever level of granularity the device should be identified (e.g., model or serial number, combination of identifiers) as defined in DI."
      },
      "exact_source_excerpt": "4 SPDEVID Sponsor Device Identifier Char Identifier Sponsor-defined identifier for the device. It must be unique for each tracked unit of the device under study, and can be at whatever level of granularity the device should be identified (e.g., model or serial number, combination of identifiers) as defined in DI.",
      "excluded_reason": null,
      "expected_outputs": [],
      "extraction_status": "CANDIDATE_RULE",
      "grain": null,
      "keys": [
        "DI"
      ],
      "local_relative_source_path": "SDTM_v2.0.pdf",
      "normalized_atomic_requirement": "It must be unique for each tracked unit of the device under study, and can be at whatever level of granularity the device should be identified (e.g., model or serial number, combination of identifiers) as defined in DI.",
      "normative_strength": "NON_NORMATIVE",
      "official_url": "https://www.cdisc.org/system/files/members/standard/foundational/SDTM_v2.0.pdf",
      "permitted_variations": [
        "It must be unique for each tracked unit of the device under study, and can be at whatever level of granularity the device should be identified (e.g., model or serial number, combination of identifiers) as defined in DI."
      ],
      "prohibited_behavior": [],
      "required_behavior": null,
      "required_inputs": [],
      "review_status": "CANDIDATE",
      "rule_id": "sdtm-model:896cd0068a4e96ac",
      "rule_type": "OPERATIVE_RULE",
      "scope": {
        "candidate_kind": "prose_requirement",
        "dataset_scope": [],
        "datasets": [],
        "structure_scope": [],
        "variable_scope": [
          "SPDEVID"
        ],
        "variables": [
          "SPDEVID"
        ]
      },
      "semantic_reconstruction_status": "CANDIDATE_RECONSTRUCTED",
      "source_hash": "11b6538be0b01812384131d2f42a2d1869ed66052793b98c485d39104801735e",
      "source_section_classification": "OPERATIVE_RULE",
      "standard_id": "sdtm-model",
      "standard_name": "Study Data Tabulation Model",
      "standard_version": "2.0",
      "structure_scope": [],
      "validation_requirement": "It must be unique for each tracked unit of the device under study, and can be at whatever level of granularity the device should be identified (e.g., model or serial number, combination of identifiers) as defined in DI.",
      "validation_requirements": [
        "It must be unique for each tracked unit of the device under study, and can be at whatever level of granularity the device should be identified (e.g., model or serial number, combination of identifiers) as defined in DI."
      ],
      "variable_scope": [
        "SPDEVID"
      ]
    },
    {
      "applicability_conditions": [],
      "classification": "NON_NORMATIVE",
      "classification_status": "RESOLVED",
      "conformance_metadata": null,
      "dataset_scope": [],
      "evidence_locator": {
        "duplicate_locators": [],
        "extraction_timestamp": "2026-08-10T08:11:23+00:00",
        "page": 57,
        "parser_compiler_version": "m3r-1",
        "section": null,
        "source_binding_status": "SOURCE_BOUND",
        "source_excerpt": "2 DOMAIN Domain Abbreviation Char Identifier C49558 An abbreviation for a collection of observations, with a topic-specific commonality. 2-character abbreviation, which must be \"TD\". 3 TDORDER Sequence of Planned Assessment Schedule Num Timing A number given to ensure ordinal sequencing of the planned assessment schedules within a trial."
      },
      "exact_source_excerpt": "2 DOMAIN Domain Abbreviation Char Identifier C49558 An abbreviation for a collection of observations, with a topic-specific commonality. 2-character abbreviation, which must be \"TD\". 3 TDORDER Sequence of Planned Assessment Schedule Num Timing A number given to ensure ordinal sequencing of the planned assessment schedules within a trial.",
      "excluded_reason": null,
      "expected_outputs": [],
      "extraction_status": "CANDIDATE_RULE",
      "grain": null,
      "keys": [
        "C49558"
      ],
      "local_relative_source_path": "SDTM_v2.0.pdf",
      "normalized_atomic_requirement": "2-character abbreviation, which must be \"TD\".",
      "normative_strength": "NON_NORMATIVE",
      "official_url": "https://www.cdisc.org/system/files/members/standard/foundational/SDTM_v2.0.pdf",
      "permitted_variations": [],
      "prohibited_behavior": [],
      "required_behavior": null,
      "required_inputs": [],
      "review_status": "CANDIDATE",
      "rule_id": "sdtm-model:8cd3aaba2024e746",
      "rule_type": "OPERATIVE_RULE",
      "scope": {
        "candidate_kind": "prose_requirement",
        "dataset_scope": [],
        "datasets": [],
        "structure_scope": [],
        "variable_scope": [
          "C49558",
          "DOMAIN",
          "TDORDER"
        ],
        "variables": [
          "C49558",
          "DOMAIN",
          "TDORDER"
        ]
      },
      "semantic_reconstruction_status": "CANDIDATE_RECONSTRUCTED",
      "source_hash": "11b6538be0b01812384131d2f42a2d1869ed66052793b98c485d39104801735e",
      "source_section_classification": "OPERATIVE_RULE",
      "standard_id": "sdtm-model",
      "standard_name": "Study Data Tabulation Model",
      "standard_version": "2.0",
      "structure_scope": [],
      "validation_requirement": "2-character abbreviation, which must be \"TD\".",
      "validation_requirements": [
        "2-character abbreviation, which must be \"TD\"."
      ],
      "variable_scope": [
        "C49558",
        "DOMAIN",
        "TDORDER"
      ]
    },
    {
      "applicability_conditions": [
        "Usually equivalent to date/time when subject was first exposed to study treatment."
      ],
      "classification": "NON_NORMATIVE",
      "classification_status": "RESOLVED",
      "conformance_metadata": null,
      "dataset_scope": [],
      "evidence_locator": {
        "duplicate_locators": [],
        "extraction_timestamp": "2026-08-10T08:11:23+00:00",
        "page": 40,
        "parser_compiler_version": "m3r-1",
        "section": null,
        "source_binding_status": "SOURCE_BOUND",
        "source_excerpt": "5 RFSTDTC Subject Reference Start Date/Time Char ISO 8601 datetime or interval Record Qualifier C83395 The start date or date and time of the sponsor-defined study reference period, represented in a standardized character format. Usually equivalent to date/time when subject was first exposed to study treatment. Required for all randomized subjects; will be null for all subjects who did not meet the milestone the d..."
      },
      "exact_source_excerpt": "5 RFSTDTC Subject Reference Start Date/Time Char ISO 8601 datetime or interval Record Qualifier C83395 The start date or date and time of the sponsor-defined study reference period, represented in a standardized character format. Usually equivalent to date/time when subject was first exposed to study treatment. Required for all randomized subjects; will be null for all subjects who did not meet the milestone the date requires, such as screen failures or unassigned subjects.",
      "excluded_reason": null,
      "expected_outputs": [],
      "extraction_status": "CANDIDATE_RULE",
      "grain": null,
      "keys": [],
      "local_relative_source_path": "SDTM_v2.0.pdf",
      "normalized_atomic_requirement": "5 RFSTDTC Subject Reference Start Date/Time Char ISO 8601 datetime or interval Record Qualifier C83395 The start date or date and time of the sponsor-defined study reference period, represented in a standardized character format. Usually equivalent to date/time when subject was first exposed to study treatment. Required for all randomized subjects; will b...",
      "normative_strength": "NON_NORMATIVE",
      "official_url": "https://www.cdisc.org/system/files/members/standard/foundational/SDTM_v2.0.pdf",
      "permitted_variations": [],
      "prohibited_behavior": [],
      "required_behavior": null,
      "required_inputs": [],
      "review_status": "CANDIDATE",
      "rule_id": "sdtm-model:8ebcb5fa39a193bb",
      "rule_type": "OPERATIVE_RULE",
      "scope": {
        "candidate_kind": "prose_requirement",
        "dataset_scope": [],
        "datasets": [],
        "structure_scope": [],
        "variable_scope": [
          "C83395",
          "ISO",
          "RFSTDTC"
        ],
        "variables": [
          "C83395",
          "ISO",
          "RFSTDTC"
        ]
      },
      "semantic_reconstruction_status": "CANDIDATE_RECONSTRUCTED",
      "source_hash": "11b6538be0b01812384131d2f42a2d1869ed66052793b98c485d39104801735e",
      "source_section_classification": "OPERATIVE_RULE",
      "standard_id": "sdtm-model",
      "standard_name": "Study Data Tabulation Model",
      "standard_version": "2.0",
      "structure_scope": [],
      "validation_requirement": null,
      "validation_requirements": [],
      "variable_scope": [
        "C83395",
        "ISO",
        "RFSTDTC"
      ]
    },
    {
      "applicability_conditions": [],
      "classification": "NON_NORMATIVE",
      "classification_status": "RESOLVED",
      "conformance_metadata": null,
      "dataset_scope": [],
      "evidence_locator": {
        "duplicate_locators": [],
        "extraction_timestamp": "2026-08-10T08:11:23+00:00",
        "page": 41,
        "parser_compiler_version": "m3r-1",
        "section": null,
        "source_binding_status": "SOURCE_BOUND",
        "source_excerpt": "13 DTHDTC Date/Time of Death Char ISO 8601 datetime or interval Record Qualifier Not in nonclinical trials C117450 The date or date and time of death, represented in a standardized character format. Should represent the date/time that is captured in the clinical-trial database."
      },
      "exact_source_excerpt": "13 DTHDTC Date/Time of Death Char ISO 8601 datetime or interval Record Qualifier Not in nonclinical trials C117450 The date or date and time of death, represented in a standardized character format. Should represent the date/time that is captured in the clinical-trial database.",
      "excluded_reason": null,
      "expected_outputs": [],
      "extraction_status": "CANDIDATE_RULE",
      "grain": null,
      "keys": [],
      "local_relative_source_path": "SDTM_v2.0.pdf",
      "normalized_atomic_requirement": "Should represent the date/time that is captured in the clinical-trial database.",
      "normative_strength": "NON_NORMATIVE",
      "official_url": "https://www.cdisc.org/system/files/members/standard/foundational/SDTM_v2.0.pdf",
      "permitted_variations": [
        "Should represent the date/time that is captured in the clinical-trial database."
      ],
      "prohibited_behavior": [],
      "required_behavior": null,
      "required_inputs": [],
      "review_status": "CANDIDATE",
      "rule_id": "sdtm-model:920f12906a4cebb0",
      "rule_type": "OPERATIVE_RULE",
      "scope": {
        "candidate_kind": "prose_requirement",
        "dataset_scope": [],
        "datasets": [],
        "structure_scope": [],
        "variable_scope": [
          "C117450",
          "DTHDTC",
          "ISO"
        ],
        "variables": [
          "C117450",
          "DTHDTC",
          "ISO"
        ]
      },
      "semantic_reconstruction_status": "CANDIDATE_RECONSTRUCTED",
      "source_hash": "11b6538be0b01812384131d2f42a2d1869ed66052793b98c485d39104801735e",
      "source_section_classification": "OPERATIVE_RULE",
      "standard_id": "sdtm-model",
      "standard_name": "Study Data Tabulation Model",
      "standard_version": "2.0",
      "structure_scope": [],
      "validation_requirement": null,
      "validation_requirements": [],
      "variable_scope": [
        "C117450",
        "DTHDTC",
        "ISO"
      ]
    },
    {
      "applicability_conditions": [],
      "classification": "NON_NORMATIVE",
      "classification_status": "RESOLVED",
      "conformance_metadata": null,
      "dataset_scope": [],
      "evidence_locator": {
        "duplicate_locators": [],
        "extraction_timestamp": "2026-08-10T08:11:23+00:00",
        "page": 52,
        "parser_compiler_version": "m3r-1",
        "section": null,
        "source_binding_status": "SOURCE_BOUND",
        "source_excerpt": "2 DOMAIN Domain Abbreviation Char Identifier C49558 An abbreviation for a collection of observations, with a topic-specific commonality. 2-character abbreviation, which must be \"TA\". 3 ARMCD Planned Arm Code Char Topic C83216 A short sequence of characters that represents the planned arm to which the subject was assigned. ARMCD is limited to 20 characters and does not have special character restrictions."
      },
      "exact_source_excerpt": "2 DOMAIN Domain Abbreviation Char Identifier C49558 An abbreviation for a collection of observations, with a topic-specific commonality. 2-character abbreviation, which must be \"TA\". 3 ARMCD Planned Arm Code Char Topic C83216 A short sequence of characters that represents the planned arm to which the subject was assigned. ARMCD is limited to 20 characters and does not have special character restrictions.",
      "excluded_reason": null,
      "expected_outputs": [],
      "extraction_status": "CANDIDATE_RULE",
      "grain": null,
      "keys": [
        "C49558"
      ],
      "local_relative_source_path": "SDTM_v2.0.pdf",
      "normalized_atomic_requirement": "2-character abbreviation, which must be \"TA\".",
      "normative_strength": "NON_NORMATIVE",
      "official_url": "https://www.cdisc.org/system/files/members/standard/foundational/SDTM_v2.0.pdf",
      "permitted_variations": [],
      "prohibited_behavior": [],
      "required_behavior": null,
      "required_inputs": [],
      "review_status": "CANDIDATE",
      "rule_id": "sdtm-model:94a594cd4788b091",
      "rule_type": "OPERATIVE_RULE",
      "scope": {
        "candidate_kind": "prose_requirement",
        "dataset_scope": [],
        "datasets": [],
        "structure_scope": [],
        "variable_scope": [
          "ARMCD",
          "C49558",
          "C83216",
          "DOMAIN"
        ],
        "variables": [
          "ARMCD",
          "C49558",
          "C83216",
          "DOMAIN"
        ]
      },
      "semantic_reconstruction_status": "CANDIDATE_RECONSTRUCTED",
      "source_hash": "11b6538be0b01812384131d2f42a2d1869ed66052793b98c485d39104801735e",
      "source_section_classification": "OPERATIVE_RULE",
      "standard_id": "sdtm-model",
      "standard_name": "Study Data Tabulation Model",
      "standard_version": "2.0",
      "structure_scope": [],
      "validation_requirement": "2-character abbreviation, which must be \"TA\".",
      "validation_requirements": [
        "2-character abbreviation, which must be \"TA\"."
      ],
      "variable_scope": [
        "ARMCD",
        "C49558",
        "C83216",
        "DOMAIN"
      ]
    },
    {
      "applicability_conditions": [
        "--EXCLFL should be null when --STAT is \"NOT DONE\"."
      ],
      "classification": "NON_NORMATIVE",
      "classification_status": "RESOLVED",
      "conformance_metadata": null,
      "dataset_scope": [],
      "evidence_locator": {
        "duplicate_locators": [],
        "extraction_timestamp": "2026-08-10T08:11:23+00:00",
        "page": 31,
        "parser_compiler_version": "m3r-1",
        "section": null,
        "source_binding_status": "SOURCE_BOUND",
        "source_excerpt": "95 --EXCLFL Exclude from Statistics Char Record Qualifier Not in human clinical trials C117045 An indication that the result is to be excluded from all calculations. Expected to be \"Y\" or null. --EXCLFL should be null when --STAT is \"NOT DONE\"."
      },
      "exact_source_excerpt": "95 --EXCLFL Exclude from Statistics Char Record Qualifier Not in human clinical trials C117045 An indication that the result is to be excluded from all calculations. Expected to be \"Y\" or null. --EXCLFL should be null when --STAT is \"NOT DONE\".",
      "excluded_reason": null,
      "expected_outputs": [],
      "extraction_status": "CANDIDATE_RULE",
      "grain": null,
      "keys": [],
      "local_relative_source_path": "SDTM_v2.0.pdf",
      "normalized_atomic_requirement": "--EXCLFL should be null when --STAT is \"NOT DONE\".",
      "normative_strength": "NON_NORMATIVE",
      "official_url": "https://www.cdisc.org/system/files/members/standard/foundational/SDTM_v2.0.pdf",
      "permitted_variations": [
        "--EXCLFL should be null when --STAT is \"NOT DONE\"."
      ],
      "prohibited_behavior": [],
      "required_behavior": null,
      "required_inputs": [],
      "review_status": "CANDIDATE",
      "rule_id": "sdtm-model:968ee755904784b4",
      "rule_type": "OPERATIVE_RULE",
      "scope": {
        "candidate_kind": "prose_requirement",
        "dataset_scope": [],
        "datasets": [],
        "structure_scope": [],
        "variable_scope": [
          "C117045",
          "DONE",
          "EXCLFL",
          "NOT",
          "STAT"
        ],
        "variables": [
          "C117045",
          "DONE",
          "EXCLFL",
          "NOT",
          "STAT"
        ]
      },
      "semantic_reconstruction_status": "CANDIDATE_RECONSTRUCTED",
      "source_hash": "11b6538be0b01812384131d2f42a2d1869ed66052793b98c485d39104801735e",
      "source_section_classification": "OPERATIVE_RULE",
      "standard_id": "sdtm-model",
      "standard_name": "Study Data Tabulation Model",
      "standard_version": "2.0",
      "structure_scope": [],
      "validation_requirement": null,
      "validation_requirements": [],
      "variable_scope": [
        "C117045",
        "DONE",
        "EXCLFL",
        "NOT",
        "STAT"
      ]
    },
    {
      "applicability_conditions": [],
      "classification": "NON_NORMATIVE",
      "classification_status": "RESOLVED",
      "conformance_metadata": null,
      "dataset_scope": [],
      "evidence_locator": {
        "duplicate_locators": [],
        "extraction_timestamp": "2026-08-10T08:11:23+00:00",
        "page": 42,
        "parser_compiler_version": "m3r-1",
        "section": null,
        "source_binding_status": "SOURCE_BOUND",
        "source_excerpt": "20 AGETXT Age Text Char number- number Record Qualifier C170982 The age at a specific point in time defined for the trial, expressed as a range. The age of the subject at study start, as planned, expressed as a range. If an age integer value is available, then populate the age variable instead. Either the AGE or AGETXT variable should be populated, but not both."
      },
      "exact_source_excerpt": "20 AGETXT Age Text Char number- number Record Qualifier C170982 The age at a specific point in time defined for the trial, expressed as a range. The age of the subject at study start, as planned, expressed as a range. If an age integer value is available, then populate the age variable instead. Either the AGE or AGETXT variable should be populated, but not both.",
      "excluded_reason": null,
      "expected_outputs": [],
      "extraction_status": "CANDIDATE_RULE",
      "grain": null,
      "keys": [],
      "local_relative_source_path": "SDTM_v2.0.pdf",
      "normalized_atomic_requirement": "Either the AGE or AGETXT variable should be populated, but not both.",
      "normative_strength": "NON_NORMATIVE",
      "official_url": "https://www.cdisc.org/system/files/members/standard/foundational/SDTM_v2.0.pdf",
      "permitted_variations": [
        "Either the AGE or AGETXT variable should be populated, but not both."
      ],
      "prohibited_behavior": [],
      "required_behavior": null,
      "required_inputs": [],
      "review_status": "CANDIDATE",
      "rule_id": "sdtm-model:996fdd284c557453",
      "rule_type": "OPERATIVE_RULE",
      "scope": {
        "candidate_kind": "variable_requirement",
        "dataset_scope": [],
        "datasets": [],
        "structure_scope": [],
        "variable_scope": [
          "AGE",
          "AGETXT",
          "C170982"
        ],
        "variables": [
          "AGE",
          "AGETXT",
          "C170982"
        ]
      },
      "semantic_reconstruction_status": "CANDIDATE_RECONSTRUCTED",
      "source_hash": "11b6538be0b01812384131d2f42a2d1869ed66052793b98c485d39104801735e",
      "source_section_classification": "OPERATIVE_RULE",
      "standard_id": "sdtm-model",
      "standard_name": "Study Data Tabulation Model",
      "standard_version": "2.0",
      "structure_scope": [],
      "validation_requirement": null,
      "validation_requirements": [],
      "variable_scope": [
        "AGE",
        "AGETXT",
        "C170982"
      ]
    },
    {
      "applicability_conditions": [],
      "classification": "NON_NORMATIVE",
      "classification_status": "RESOLVED",
      "conformance_metadata": null,
      "dataset_scope": [],
      "evidence_locator": {
        "duplicate_locators": [],
        "extraction_timestamp": "2026-08-10T08:11:23+00:00",
        "page": 58,
        "parser_compiler_version": "m3r-1",
        "section": null,
        "source_binding_status": "SOURCE_BOUND",
        "source_excerpt": "3 MIDSTYPE Disease Milestone Type Char Topic The type of disease milestone. \"HYPOGLYCEMIC EVENT\" 4 TMDEF Disease Milestone Definition Char Variable Qualifier MIDSTYPE Definition of the disease milestone. 5 TMRPT Disease Milestone Repetition Indicator Char Record Qualifier Indicates whether this is a disease milestone that can occur only once (\"N\") or one that can occur multiple times (\"Y\")."
      },
      "exact_source_excerpt": "3 MIDSTYPE Disease Milestone Type Char Topic The type of disease milestone. \"HYPOGLYCEMIC EVENT\" 4 TMDEF Disease Milestone Definition Char Variable Qualifier MIDSTYPE Definition of the disease milestone. 5 TMRPT Disease Milestone Repetition Indicator Char Record Qualifier Indicates whether this is a disease milestone that can occur only once (\"N\") or one that can occur multiple times (\"Y\").",
      "excluded_reason": null,
      "expected_outputs": [],
      "extraction_status": "CANDIDATE_RULE",
      "grain": null,
      "keys": [],
      "local_relative_source_path": "SDTM_v2.0.pdf",
      "normalized_atomic_requirement": "3 MIDSTYPE Disease Milestone Type Char Topic The type of disease milestone. \"HYPOGLYCEMIC EVENT\" 4 TMDEF Disease Milestone Definition Char Variable Qualifier MIDSTYPE Definition of the disease milestone. 5 TMRPT Disease Milestone Repetition Indicator Char Record Qualifier Indicates whether this is a disease milestone that can occur only once (\"N\") or one...",
      "normative_strength": "NON_NORMATIVE",
      "official_url": "https://www.cdisc.org/system/files/members/standard/foundational/SDTM_v2.0.pdf",
      "permitted_variations": [
        "5 TMRPT Disease Milestone Repetition Indicator Char Record Qualifier Indicates whether this is a disease milestone that can occur only once (\"N\") or one that can occur multiple times (\"Y\")."
      ],
      "prohibited_behavior": [],
      "required_behavior": null,
      "required_inputs": [],
      "review_status": "CANDIDATE",
      "rule_id": "sdtm-model:99a0decfd5cae60b",
      "rule_type": "DEFINITION",
      "scope": {
        "candidate_kind": "variable_requirement",
        "dataset_scope": [],
        "datasets": [],
        "structure_scope": [],
        "variable_scope": [
          "EVENT",
          "HYPOGLYCEMIC",
          "MIDSTYPE",
          "TMDEF",
          "TMRPT"
        ],
        "variables": [
          "EVENT",
          "HYPOGLYCEMIC",
          "MIDSTYPE",
          "TMDEF",
          "TMRPT"
        ]
      },
      "semantic_reconstruction_status": "CANDIDATE_RECONSTRUCTED",
      "source_hash": "11b6538be0b01812384131d2f42a2d1869ed66052793b98c485d39104801735e",
      "source_section_classification": "DEFINITION",
      "standard_id": "sdtm-model",
      "standard_name": "Study Data Tabulation Model",
      "standard_version": "2.0",
      "structure_scope": [],
      "validation_requirement": null,
      "validation_requirements": [],
      "variable_scope": [
        "EVENT",
        "HYPOGLYCEMIC",
        "MIDSTYPE",
        "TMDEF",
        "TMRPT"
      ]
    },
    {
      "applicability_conditions": [],
      "classification": "NON_NORMATIVE",
      "classification_status": "RESOLVED",
      "conformance_metadata": null,
      "dataset_scope": [],
      "evidence_locator": {
        "duplicate_locators": [],
        "extraction_timestamp": "2026-08-10T08:11:23+00:00",
        "page": 65,
        "parser_compiler_version": "m3r-1",
        "section": null,
        "source_binding_status": "SOURCE_BOUND",
        "source_excerpt": "10 RELID Relationship Identifier Char Record Qualifier RELID value should be unique within the ID variable (e.g., USUBJID, APID, POOLID, SPDEVID) that is the subject of the relationship. All records with this ID variable that have the same RELID are considered related/associated. RELID can be any value the sponsor chooses, and is only meaningful within the RELREC dataset to identify the related/associated Domain r..."
      },
      "exact_source_excerpt": "10 RELID Relationship Identifier Char Record Qualifier RELID value should be unique within the ID variable (e.g., USUBJID, APID, POOLID, SPDEVID) that is the subject of the relationship. All records with this ID variable that have the same RELID are considered related/associated. RELID can be any value the sponsor chooses, and is only meaningful within the RELREC dataset to identify the related/associated Domain records.",
      "excluded_reason": null,
      "expected_outputs": [],
      "extraction_status": "CANDIDATE_RULE",
      "grain": null,
      "keys": [
        "RELID",
        "ID"
      ],
      "local_relative_source_path": "SDTM_v2.0.pdf",
      "normalized_atomic_requirement": "10 RELID Relationship Identifier Char Record Qualifier RELID value should be unique within the ID variable (e.g., USUBJID, APID, POOLID, SPDEVID) that is the subject of the relationship.",
      "normative_strength": "NON_NORMATIVE",
      "official_url": "https://www.cdisc.org/system/files/members/standard/foundational/SDTM_v2.0.pdf",
      "permitted_variations": [
        "10 RELID Relationship Identifier Char Record Qualifier RELID value should be unique within the ID variable (e.g., USUBJID, APID, POOLID, SPDEVID) that is the subject of the relationship.",
        "RELID can be any value the sponsor chooses, and is only meaningful within the RELREC dataset to identify the related/associated Domain records."
      ],
      "prohibited_behavior": [],
      "required_behavior": null,
      "required_inputs": [],
      "review_status": "CANDIDATE",
      "rule_id": "sdtm-model:9ae2657c7871f4f5",
      "rule_type": "OPERATIVE_RULE",
      "scope": {
        "candidate_kind": "variable_requirement",
        "dataset_scope": [],
        "datasets": [],
        "structure_scope": [],
        "variable_scope": [
          "APID",
          "POOLID",
          "RELID",
          "RELREC",
          "SPDEVID",
          "USUBJID"
        ],
        "variables": [
          "APID",
          "POOLID",
          "RELID",
          "RELREC",
          "SPDEVID",
          "USUBJID"
        ]
      },
      "semantic_reconstruction_status": "CANDIDATE_RECONSTRUCTED",
      "source_hash": "11b6538be0b01812384131d2f42a2d1869ed66052793b98c485d39104801735e",
      "source_section_classification": "OPERATIVE_RULE",
      "standard_id": "sdtm-model",
      "standard_name": "Study Data Tabulation Model",
      "standard_version": "2.0",
      "structure_scope": [],
      "validation_requirement": null,
      "validation_requirements": [],
      "variable_scope": [
        "APID",
        "POOLID",
        "RELID",
        "RELREC",
        "SPDEVID",
        "USUBJID"
      ]
    },
    {
      "applicability_conditions": [
        "\"ASTHMA\" when TSPARM value is \"Trial Indications\" 8 TSVALNF Parameter Null Flavor Char Result Qualifier Null flavor for the value of TSVAL describing the reason the value is null, to be populated only if TSVAL is null."
      ],
      "classification": "NON_NORMATIVE",
      "classification_status": "RESOLVED",
      "conformance_metadata": null,
      "dataset_scope": [],
      "evidence_locator": {
        "duplicate_locators": [],
        "extraction_timestamp": "2026-08-10T08:11:23+00:00",
        "page": 59,
        "parser_compiler_version": "m3r-1",
        "section": null,
        "source_binding_status": "SOURCE_BOUND",
        "source_excerpt": "4 TSGRPID Group ID Char Identifier Used to tie together a group of related records. 5 TSPARMCD Trial Summary Parameter Short Name Char Topic TSPARMCD (the companion to TSPARM) is limited to 8 characters and does not have special character restrictions. These values should be short for ease of use in programming, but it is not expected that TSPARMCD will need to serve as variable names. \"AGEMIN\", \"AGEMAX\" 6 TSPARM..."
      },
      "exact_source_excerpt": "4 TSGRPID Group ID Char Identifier Used to tie together a group of related records. 5 TSPARMCD Trial Summary Parameter Short Name Char Topic TSPARMCD (the companion to TSPARM) is limited to 8 characters and does not have special character restrictions. These values should be short for ease of use in programming, but it is not expected that TSPARMCD will need to serve as variable names. \"AGEMIN\", \"AGEMAX\" 6 TSPARM Trial Summary Parameter Char Synonym Qualifier TSPARMCD Term for the trial summary parameter. The value in TSPARM cannot be longer than 40 characters. \"Planned Minimum Age of Subjects\", \"Planned Maximum Age of Subjects\" 7 TSVAL Parameter Value Char Result Qualifier Value of TSPARM. If TSVAL is null, a value is required for TSVALNF. Text over 200 characters can be added to additional columns TSVAL1-TSVALn. \"ASTHMA\" when TSPARM value is \"Trial Indications\" 8 TSVALNF Parameter Null Flavor Char Result Qualifier Null flavor for the value of TSVAL describing the reason the value is null, to be populated only if TSVAL is null.",
      "excluded_reason": null,
      "expected_outputs": [],
      "extraction_status": "CANDIDATE_RULE",
      "grain": null,
      "keys": [],
      "local_relative_source_path": "SDTM_v2.0.pdf",
      "normalized_atomic_requirement": "These values should be short for ease of use in programming, but it is not expected that TSPARMCD will need to serve as variable names.",
      "normative_strength": "NON_NORMATIVE",
      "official_url": "https://www.cdisc.org/system/files/members/standard/foundational/SDTM_v2.0.pdf",
      "permitted_variations": [
        "These values should be short for ease of use in programming, but it is not expected that TSPARMCD will need to serve as variable names.",
        "The value in TSPARM cannot be longer than 40 characters.",
        "Text over 200 characters can be added to additional columns TSVAL1-TSVALn."
      ],
      "prohibited_behavior": [],
      "required_behavior": null,
      "required_inputs": [],
      "review_status": "CANDIDATE",
      "rule_id": "sdtm-model:9b00e8aa8d556509",
      "rule_type": "OPERATIVE_RULE",
      "scope": {
        "candidate_kind": "variable_requirement",
        "dataset_scope": [],
        "datasets": [],
        "structure_scope": [],
        "variable_scope": [
          "AGEMAX",
          "AGEMIN",
          "ASTHMA",
          "TSGRPID",
          "TSPARM",
          "TSPARMCD",
          "TSVAL",
          "TSVAL1",
          "TSVALNF"
        ],
        "variables": [
          "AGEMAX",
          "AGEMIN",
          "ASTHMA",
          "TSGRPID",
          "TSPARM",
          "TSPARMCD",
          "TSVAL",
          "TSVAL1",
          "TSVALNF"
        ]
      },
      "semantic_reconstruction_status": "CANDIDATE_RECONSTRUCTED",
      "source_hash": "11b6538be0b01812384131d2f42a2d1869ed66052793b98c485d39104801735e",
      "source_section_classification": "OPERATIVE_RULE",
      "standard_id": "sdtm-model",
      "standard_name": "Study Data Tabulation Model",
      "standard_version": "2.0",
      "structure_scope": [],
      "validation_requirement": null,
      "validation_requirements": [],
      "variable_scope": [
        "AGEMAX",
        "AGEMIN",
        "ASTHMA",
        "TSGRPID",
        "TSPARM",
        "TSPARMCD",
        "TSVAL",
        "TSVAL1",
        "TSVALNF"
      ]
    },
    {
      "applicability_conditions": [],
      "classification": "NON_NORMATIVE",
      "classification_status": "RESOLVED",
      "conformance_metadata": null,
      "dataset_scope": [],
      "evidence_locator": {
        "duplicate_locators": [],
        "extraction_timestamp": "2026-08-10T08:11:23+00:00",
        "page": 36,
        "parser_compiler_version": "m3r-1",
        "section": null,
        "source_binding_status": "SOURCE_BOUND",
        "source_excerpt": "16 --NOMDY Nominal Study Day for Tabulations Num Timing Not in human clinical trials C170498 The nominal study day, relative to the sponsor-defined reference start date, used by data collection and reporting systems for grouping records for observations that may be scheduled to occur on different days into a single study day (e.g., for output on a tabulation report)."
      },
      "exact_source_excerpt": "16 --NOMDY Nominal Study Day for Tabulations Num Timing Not in human clinical trials C170498 The nominal study day, relative to the sponsor-defined reference start date, used by data collection and reporting systems for grouping records for observations that may be scheduled to occur on different days into a single study day (e.g., for output on a tabulation report).",
      "excluded_reason": null,
      "expected_outputs": [],
      "extraction_status": "CANDIDATE_RULE",
      "grain": null,
      "keys": [],
      "local_relative_source_path": "SDTM_v2.0.pdf",
      "normalized_atomic_requirement": "16 --NOMDY Nominal Study Day for Tabulations Num Timing Not in human clinical trials C170498 The nominal study day, relative to the sponsor-defined reference start date, used by data collection and reporting systems for grouping records for observations that may be scheduled to occur on different days into a single study day (e.g., for output on a tabulat...",
      "normative_strength": "NON_NORMATIVE",
      "official_url": "https://www.cdisc.org/system/files/members/standard/foundational/SDTM_v2.0.pdf",
      "permitted_variations": [
        "16 --NOMDY Nominal Study Day for Tabulations Num Timing Not in human clinical trials C170498 The nominal study day, relative to the sponsor-defined reference start date, used by data collection and reporting systems for grouping records for observations that may be scheduled to occur on different days into a single study day (e.g., for output on a tabulation report)."
      ],
      "prohibited_behavior": [],
      "required_behavior": null,
      "required_inputs": [],
      "review_status": "CANDIDATE",
      "rule_id": "sdtm-model:9c0a9f6b8e6c534b",
      "rule_type": "OPERATIVE_RULE",
      "scope": {
        "candidate_kind": "prose_requirement",
        "dataset_scope": [],
        "datasets": [],
        "structure_scope": [],
        "variable_scope": [
          "C170498",
          "NOMDY"
        ],
        "variables": [
          "C170498",
          "NOMDY"
        ]
      },
      "semantic_reconstruction_status": "CANDIDATE_RECONSTRUCTED",
      "source_hash": "11b6538be0b01812384131d2f42a2d1869ed66052793b98c485d39104801735e",
      "source_section_classification": "OPERATIVE_RULE",
      "standard_id": "sdtm-model",
      "standard_name": "Study Data Tabulation Model",
      "standard_version": "2.0",
      "structure_scope": [],
      "validation_requirement": null,
      "validation_requirements": [],
      "variable_scope": [
        "C170498",
        "NOMDY"
      ]
    },
    {
      "applicability_conditions": [],
      "classification": "NON_NORMATIVE",
      "classification_status": "RESOLVED",
      "conformance_metadata": null,
      "dataset_scope": [],
      "evidence_locator": {
        "duplicate_locators": [],
        "extraction_timestamp": "2026-08-10T08:11:23+00:00",
        "page": 67,
        "parser_compiler_version": "m3r-1",
        "section": null,
        "source_binding_status": "SOURCE_BOUND",
        "source_excerpt": "3 POOLID Pool Identifier Char Identifier C117053 A sequence of characters used to uniquely identify a group of subjects that have been pooled together. If POOLID is entered, POOLDEF records must exist for each subject in the pool and USUBJID must be null. Either USUBJID or POOLID must be populated."
      },
      "exact_source_excerpt": "3 POOLID Pool Identifier Char Identifier C117053 A sequence of characters used to uniquely identify a group of subjects that have been pooled together. If POOLID is entered, POOLDEF records must exist for each subject in the pool and USUBJID must be null. Either USUBJID or POOLID must be populated.",
      "excluded_reason": null,
      "expected_outputs": [],
      "extraction_status": "CANDIDATE_RULE",
      "grain": null,
      "keys": [
        "C117053"
      ],
      "local_relative_source_path": "SDTM_v2.0.pdf",
      "normalized_atomic_requirement": "If POOLID is entered, POOLDEF records must exist for each subject in the pool and USUBJID must be null.",
      "normative_strength": "NON_NORMATIVE",
      "official_url": "https://www.cdisc.org/system/files/members/standard/foundational/SDTM_v2.0.pdf",
      "permitted_variations": [],
      "prohibited_behavior": [],
      "required_behavior": null,
      "required_inputs": [],
      "review_status": "CANDIDATE",
      "rule_id": "sdtm-model:a849725ff3d133ba",
      "rule_type": "OPERATIVE_RULE",
      "scope": {
        "candidate_kind": "prose_requirement",
        "dataset_scope": [],
        "datasets": [],
        "structure_scope": [],
        "variable_scope": [
          "C117053",
          "POOLDEF",
          "POOLID",
          "USUBJID"
        ],
        "variables": [
          "C117053",
          "POOLDEF",
          "POOLID",
          "USUBJID"
        ]
      },
      "semantic_reconstruction_status": "CANDIDATE_RECONSTRUCTED",
      "source_hash": "11b6538be0b01812384131d2f42a2d1869ed66052793b98c485d39104801735e",
      "source_section_classification": "OPERATIVE_RULE",
      "standard_id": "sdtm-model",
      "standard_name": "Study Data Tabulation Model",
      "standard_version": "2.0",
      "structure_scope": [],
      "validation_requirement": "If POOLID is entered, POOLDEF records must exist for each subject in the pool and USUBJID must be null.",
      "validation_requirements": [
        "If POOLID is entered, POOLDEF records must exist for each subject in the pool and USUBJID must be null.",
        "Either USUBJID or POOLID must be populated."
      ],
      "variable_scope": [
        "C117053",
        "POOLDEF",
        "POOLID",
        "USUBJID"
      ]
    },
    {
      "applicability_conditions": [],
      "classification": "NON_NORMATIVE",
      "classification_status": "RESOLVED",
      "conformance_metadata": null,
      "dataset_scope": [],
      "evidence_locator": {
        "duplicate_locators": [],
        "extraction_timestamp": "2026-08-10T08:11:23+00:00",
        "page": 34,
        "parser_compiler_version": "m3r-1",
        "section": null,
        "source_binding_status": "SOURCE_BOUND",
        "source_excerpt": "13 --SPID Sponsor- Defined Identifier Char Identifier C82530 A sponsor-defined sequence of characters used to identify an instance of an observation. A preprinted line identifier on a Concomitant Medications form. 14 --LNKID Link ID Char Identifier C117050 A sequence of characters used to uniquely identify a record, for a subject, in one domain and link it to 1 or more records for that subject in another domain. T..."
      },
      "exact_source_excerpt": "13 --SPID Sponsor- Defined Identifier Char Identifier C82530 A sponsor-defined sequence of characters used to identify an instance of an observation. A preprinted line identifier on a Concomitant Medications form. 14 --LNKID Link ID Char Identifier C117050 A sequence of characters used to uniquely identify a record, for a subject, in one domain and link it to 1 or more records for that subject in another domain. This may be a one-to-one or a one-to- many relationship. A value that links a single tumor to multiple measurements/assessments performed at different times. 15 -- LNKGRP Link Group ID Char Identifier C117049 A sequence of characters used to uniquely identify a group of records, for a subject, in one domain and link it to 1 or more records for that subject in another domain. This will usually be a many-to-one relationship. A value that links multiple tumor measurement/assessments to a single response to therapy. 16 -- BEATNO ECG Beat Number Num Identifier EG Domain only A sequence number that identifies the beat within an ECG.",
      "excluded_reason": null,
      "expected_outputs": [],
      "extraction_status": "CANDIDATE_RULE",
      "grain": null,
      "keys": [
        "C82530",
        "C117050",
        "C117049",
        "EG",
        "ECG"
      ],
      "local_relative_source_path": "SDTM_v2.0.pdf",
      "normalized_atomic_requirement": "This may be a one-to-one or a one-to- many relationship.",
      "normative_strength": "NON_NORMATIVE",
      "official_url": "https://www.cdisc.org/system/files/members/standard/foundational/SDTM_v2.0.pdf",
      "permitted_variations": [
        "This may be a one-to-one or a one-to- many relationship."
      ],
      "prohibited_behavior": [],
      "required_behavior": null,
      "required_inputs": [],
      "review_status": "CANDIDATE",
      "rule_id": "sdtm-model:a8d923419bb9ff58",
      "rule_type": "OPERATIVE_RULE",
      "scope": {
        "candidate_kind": "prose_requirement",
        "dataset_scope": [],
        "datasets": [],
        "structure_scope": [],
        "variable_scope": [
          "BEATNO",
          "C117049",
          "C117050",
          "C82530",
          "ECG",
          "LNKGRP",
          "LNKID",
          "SPID"
        ],
        "variables": [
          "BEATNO",
          "C117049",
          "C117050",
          "C82530",
          "ECG",
          "LNKGRP",
          "LNKID",
          "SPID"
        ]
      },
      "semantic_reconstruction_status": "CANDIDATE_RECONSTRUCTED",
      "source_hash": "11b6538be0b01812384131d2f42a2d1869ed66052793b98c485d39104801735e",
      "source_section_classification": "OPERATIVE_RULE",
      "standard_id": "sdtm-model",
      "standard_name": "Study Data Tabulation Model",
      "standard_version": "2.0",
      "structure_scope": [],
      "validation_requirement": null,
      "validation_requirements": [],
      "variable_scope": [
        "BEATNO",
        "C117049",
        "C117050",
        "C82530",
        "ECG",
        "LNKGRP",
        "LNKID",
        "SPID"
      ]
    },
    {
      "applicability_conditions": [],
      "classification": "NON_NORMATIVE",
      "classification_status": "RESOLVED",
      "conformance_metadata": null,
      "dataset_scope": [],
      "evidence_locator": {
        "duplicate_locators": [],
        "extraction_timestamp": "2026-08-10T08:11:23+00:00",
        "page": 66,
        "parser_compiler_version": "m3r-1",
        "section": null,
        "source_binding_status": "SOURCE_BOUND",
        "source_excerpt": "9 QNAM Qualifier Variable Name Char Topic The short name of the qualifier variable, which is used as a column name in a domain view with data from the parent domain. The value in QNAM cannot be longer than 8 characters, nor can it start with a number (e.g., \"1TEST\"). QNAM cannot contain characters other than letters, numbers, or underscores. This will often be the column name in the sponsor's operational dataset...."
      },
