{
  "ambiguous_count": 54,
  "candidates": [
    {
      "citation_status": "RESOLVED",
      "decision": "REVIEW_AMBIGUOUS",
      "normalized_atomic_requirement": "For example, this may be the randomization date or the date of first study therapy exposure.",
      "reason": "example_only_atomic_requirement",
      "rule_id": "adam-bds-tte:1b973c727f08289c",
      "rule_type": "CONTROLLED_TERMINOLOGY",
      "shard": "adam-bds-tte.json",
      "source_section_classification": "CONTROLLED_TERMINOLOGY",
      "standard_id": "adam-bds-tte"
    },
    {
      "citation_status": "RESOLVED",
      "decision": "REVIEW_AMBIGUOUS",
      "normalized_atomic_requirement": "ADaM Examples in Commonly Used Statistical Analysis Methods Version 1.0 \u00a9 2011 Clinical Data Interchange Standards Consortium, Inc. All rights reserved Page 49 FINAL December, 2011 Table 2.7.2.1 Analysis Variable Metadata for Repeated Measures Analysis of Crossover Example - ADSL 24 Dataset Name Variable Name Variable Label Variable Type Display Format Co...",
      "reason": "example_may_contain_derivation_logic",
      "rule_id": "adam-common-statistical-analysis-examples:12ba230bb1837a7a",
      "rule_type": "CONTROLLED_TERMINOLOGY",
      "shard": "adam-common-statistical-analysis-examples.json",
      "source_section_classification": "CONTROLLED_TERMINOLOGY",
      "standard_id": "adam-common-statistical-analysis-examples"
    },
    {
      "citation_status": "RESOLVED",
      "decision": "REVIEW_AMBIGUOUS",
      "normalized_atomic_requirement": "Table 2.8.1.2 Analysis Variable Metadata for Categorical Analysis of Subjects Meeting Hy\u2019s Law Criteria Example 32 Dataset Name Parameter Identifier Variable Name Variable Label Variable Type Display Format Codelist / Controlled Terms Source / Derivation ADLBHY *ALL* STUDYID Study Identifier text $10 ADSL.STUDYID ADLBHY *ALL* USUBJID Unique Subject Identi...",
      "reason": "example_may_contain_derivation_logic",
      "rule_id": "adam-common-statistical-analysis-examples:158f3c0169150d9c",
      "rule_type": "CONTROLLED_TERMINOLOGY",
      "shard": "adam-common-statistical-analysis-examples.json",
      "source_section_classification": "CONTROLLED_TERMINOLOGY",
      "standard_id": "adam-common-statistical-analysis-examples"
    },
    {
      "citation_status": "RESOLVED",
      "decision": "REVIEW_AMBIGUOUS",
      "normalized_atomic_requirement": "ADaM Examples in Commonly Used Statistical Analysis Methods Version 1.0 \u00a9 2011 Clinical Data Interchange Standards Consortium, Inc. All rights reserved Page 70 FINAL December, 2011 Table 2.8.1.2 Analysis Variable Metadata for Categorical Analysis of Subjects Meeting Hy\u2019s Law Criteria Example 32 Dataset Name Parameter Identifier Variable Name Variable Labe...",
      "reason": "example_may_contain_derivation_logic",
      "rule_id": "adam-common-statistical-analysis-examples:18c5f9634100309c",
      "rule_type": "CONTROLLED_TERMINOLOGY",
      "shard": "adam-common-statistical-analysis-examples.json",
      "source_section_classification": "CONTROLLED_TERMINOLOGY",
      "standard_id": "adam-common-statistical-analysis-examples"
    },
    {
      "citation_status": "RESOLVED",
      "decision": "REVIEW_AMBIGUOUS",
      "normalized_atomic_requirement": "ADaM Examples in Commonly Used Statistical Analysis Methods Version 1.0 \u00a9 2011 Clinical Data Interchange Standards Consortium, Inc. All rights reserved Page 69 FINAL December, 2011 Table 2.8.1.2 Analysis Variable Metadata for Categorical Analysis of Subjects Meeting Hy\u2019s Law Criteria Example 32 Dataset Name Parameter Identifier Variable Name Variable Labe...",
      "reason": "example_may_contain_derivation_logic",
      "rule_id": "adam-common-statistical-analysis-examples:21c7608d289de23c",
      "rule_type": "CONTROLLED_TERMINOLOGY",
      "shard": "adam-common-statistical-analysis-examples.json",
      "source_section_classification": "CONTROLLED_TERMINOLOGY",
      "standard_id": "adam-common-statistical-analysis-examples"
    },
    {
      "citation_status": "RESOLVED",
      "decision": "REVIEW_AMBIGUOUS",
      "normalized_atomic_requirement": "ADaM Examples in Commonly Used Statistical Analysis Methods Version 1.0 \u00a9 2011 Clinical Data Interchange Standards Consortium, Inc. All rights reserved Page 10 FINAL December, 2011 Table 2.1.1.2 Analysis Variable Metadata for ANCOV A Example3 Dataset Name Parameter Identifier Variable Name Variable Label Variable Type Display Format Codelist / Controlled...",
      "reason": "example_may_contain_derivation_logic",
      "rule_id": "adam-common-statistical-analysis-examples:258001f2bdf12945",
      "rule_type": "CONTROLLED_TERMINOLOGY",
      "shard": "adam-common-statistical-analysis-examples.json",
      "source_section_classification": "CONTROLLED_TERMINOLOGY",
      "standard_id": "adam-common-statistical-analysis-examples"
    },
    {
      "citation_status": "RESOLVED",
      "decision": "REVIEW_AMBIGUOUS",
      "normalized_atomic_requirement": "ADaM Examples in Commonly Used Statistical Analysis Methods Version 1.0 \u00a9 2011 Clinical Data Interchange Standards Consortium, Inc. All rights reserved Page 12 FINAL December, 2011 Table 2.1.1.2 Analysis Variable Metadata for ANCOV A Example3 Dataset Name Parameter Identifier Variable Name Variable Label Variable Type Display Format Codelist / Controlled...",
      "reason": "example_may_contain_derivation_logic",
      "rule_id": "adam-common-statistical-analysis-examples:323477c4d275229b",
      "rule_type": "CONTROLLED_TERMINOLOGY",
      "shard": "adam-common-statistical-analysis-examples.json",
      "source_section_classification": "CONTROLLED_TERMINOLOGY",
      "standard_id": "adam-common-statistical-analysis-examples"
    },
    {
      "citation_status": "RESOLVED",
      "decision": "REVIEW_AMBIGUOUS",
      "normalized_atomic_requirement": "ADaM Examples in Commonly Used Statistical Analysis Methods Version 1.0 \u00a9 2011 Clinical Data Interchange Standards Consortium, Inc. All rights reserved Page 52 FINAL December, 2011 Table 2.7.3.1 Analysis Variable Metadata for Repeated Measures Analysis of Crossover Example - ADFEV 25 Dataset Name Parameter Identifier Variable Name Variable Label Variable...",
      "reason": "example_may_contain_derivation_logic",
      "rule_id": "adam-common-statistical-analysis-examples:440c4449b7ba56b7",
      "rule_type": "CONTROLLED_TERMINOLOGY",
      "shard": "adam-common-statistical-analysis-examples.json",
      "source_section_classification": "CONTROLLED_TERMINOLOGY",
      "standard_id": "adam-common-statistical-analysis-examples"
    },
    {
      "citation_status": "RESOLVED",
      "decision": "REVIEW_AMBIGUOUS",
      "normalized_atomic_requirement": "adfev.xpt One record per subject per basetype per period per parameter per analysis time point STUDYID, USUBJID, BASETYPE, APERIOD, PARAMN, AVISIT, ATPTN BDS adfev.sas ADFEVAUC Forced expired volume AUC analysis data- for the AUC (0-12 hours) and -the AUC (12-24 hours) adfevauc.xpt One record per subject per basetype per period per parameter STUDYID, USUB...",
      "reason": "example_may_contain_derivation_logic",
      "rule_id": "adam-common-statistical-analysis-examples:4688a44d4cd82642",
      "rule_type": "OPERATIVE_RULE",
      "shard": "adam-common-statistical-analysis-examples.json",
      "source_section_classification": "OPERATIVE_RULE",
      "standard_id": "adam-common-statistical-analysis-examples"
    },
    {
      "citation_status": "RESOLVED",
      "decision": "REVIEW_AMBIGUOUS",
      "normalized_atomic_requirement": "ADaM Examples in Commonly Used Statistical Analysis Methods Version 1.0 \u00a9 2011 Clinical Data Interchange Standards Consortium, Inc. All rights reserved Page 68 FINAL December, 2011 Table 2.8.1.2 Analysis Variable Metadata for Categorical Analysis of Subjects Meeting Hy\u2019s Law Criteria Example 32 Dataset Name Parameter Identifier Variable Name Variable Labe...",
      "reason": "example_may_contain_derivation_logic",
      "rule_id": "adam-common-statistical-analysis-examples:4701c8e2f0369c49",
      "rule_type": "CONTROLLED_TERMINOLOGY",
      "shard": "adam-common-statistical-analysis-examples.json",
      "source_section_classification": "CONTROLLED_TERMINOLOGY",
      "standard_id": "adam-common-statistical-analysis-examples"
    },
    {
      "citation_status": "RESOLVED",
      "decision": "REVIEW_AMBIGUOUS",
      "normalized_atomic_requirement": "ADaM Examples in Commonly Used Statistical Analysis Methods Version 1.0 \u00a9 2011 Clinical Data Interchange Standards Consortium, Inc. All rights reserved Page 9 FINAL December, 2011 Table 2.1.1.2 Analysis Variable Metadata for ANCOV A Example3 Dataset Name Parameter Identifier Variable Name Variable Label Variable Type Display Format Codelist / Controlled T...",
      "reason": "example_may_contain_derivation_logic",
      "rule_id": "adam-common-statistical-analysis-examples:48c20663184c1a9d",
      "rule_type": "CONTROLLED_TERMINOLOGY",
      "shard": "adam-common-statistical-analysis-examples.json",
      "source_section_classification": "CONTROLLED_TERMINOLOGY",
      "standard_id": "adam-common-statistical-analysis-examples"
    },
    {
      "citation_status": "RESOLVED",
      "decision": "REVIEW_AMBIGUOUS",
      "normalized_atomic_requirement": "This trial includes two efficacy endpoints. The efficacy endpoints are the FEV1 AUC(0-12) response and AUC(12-24) response after 6 weeks of treatment. The FEV1 AUC(0-12) and AUC(12-24) responses are derived using the FEV1 measurements, which are found in the ADFEV dataset. The ADFEV AUC dataset includes the derived FEV1 AUC response endpoints, key variabl...",
      "reason": "example_may_contain_derivation_logic",
      "rule_id": "adam-common-statistical-analysis-examples:4de4b3bbeb61ab7b",
      "rule_type": "CONTROLLED_TERMINOLOGY",
      "shard": "adam-common-statistical-analysis-examples.json",
      "source_section_classification": "CONTROLLED_TERMINOLOGY",
      "standard_id": "adam-common-statistical-analysis-examples"
    },
    {
      "citation_status": "RESOLVED",
      "decision": "REVIEW_AMBIGUOUS",
      "normalized_atomic_requirement": "ADaM Examples in Commonly Used Statistical Analysis Methods Version 1.0 \u00a9 2011 Clinical Data Interchange Standards Consortium, Inc. All rights reserved Page 45 FINAL December, 2011 2.7.2 Analysis Variable Metadata and Analysis Dataset \u2013 ADSL Table 2.7.2.1 Analysis Variable Metadata for Repeated Measures Analysis of Crossover Example - ADSL 24 Dataset Name...",
      "reason": "example_may_contain_derivation_logic",
      "rule_id": "adam-common-statistical-analysis-examples:4f9ea1a7f1fd9867",
      "rule_type": "CONTROLLED_TERMINOLOGY",
      "shard": "adam-common-statistical-analysis-examples.json",
      "source_section_classification": "CONTROLLED_TERMINOLOGY",
      "standard_id": "adam-common-statistical-analysis-examples"
    },
    {
      "citation_status": "RESOLVED",
      "decision": "REVIEW_AMBIGUOUS",
      "normalized_atomic_requirement": "Table 2.5.1.2 Analysis Variable Metadata for Logistic Regression Analysis Example15 Dataset Name Parameter Identifier Variable Name Variable Label Variable Type Display Format Codelist / Controlled Terms Source / Derivation ADPAIN *ALL* STUDYID Study Identifier text $10 ADSL.STUDYID ADPAIN *ALL* USUBJID Unique Subject Identifier text $20 ADSL.USUBJID",
      "reason": "example_may_contain_derivation_logic",
      "rule_id": "adam-common-statistical-analysis-examples:587b0bc72b68339d",
      "rule_type": "CONTROLLED_TERMINOLOGY",
      "shard": "adam-common-statistical-analysis-examples.json",
      "source_section_classification": "CONTROLLED_TERMINOLOGY",
      "standard_id": "adam-common-statistical-analysis-examples"
    },
    {
      "citation_status": "RESOLVED",
      "decision": "REVIEW_AMBIGUOUS",
      "normalized_atomic_requirement": "ADaM Examples in Commonly Used Statistical Analysis Methods Version 1.0 \u00a9 2011 Clinical Data Interchange Standards Consortium, Inc. All rights reserved Page 71 FINAL December, 2011 Table 2.8.1.2 Analysis Variable Metadata for Categorical Analysis of Subjects Meeting Hy\u2019s Law Criteria Example 32 Dataset Name Parameter Identifier Variable Name Variable Labe...",
      "reason": "example_may_contain_derivation_logic",
      "rule_id": "adam-common-statistical-analysis-examples:6e32a90209bcb6e0",
      "rule_type": "CONTROLLED_TERMINOLOGY",
      "shard": "adam-common-statistical-analysis-examples.json",
      "source_section_classification": "CONTROLLED_TERMINOLOGY",
      "standard_id": "adam-common-statistical-analysis-examples"
    },
    {
      "citation_status": "RESOLVED",
      "decision": "REVIEW_AMBIGUOUS",
      "normalized_atomic_requirement": "ADaM Examples in Commonly Used Statistical Analysis Methods Version 1.0 \u00a9 2011 Clinical Data Interchange Standards Consortium, Inc. All rights reserved Page 61 FINAL December, 2011 Table 2.7.3.3 Analysis Variable Metadata for Repeated Measures Analysis of Crossover Example - ADFEV AUC 27 Dataset Name Parameter Identifier Variable Name Variable Label Varia...",
      "reason": "example_may_contain_derivation_logic",
      "rule_id": "adam-common-statistical-analysis-examples:7558fe3ba0a57f74",
      "rule_type": "CONTROLLED_TERMINOLOGY",
      "shard": "adam-common-statistical-analysis-examples.json",
      "source_section_classification": "CONTROLLED_TERMINOLOGY",
      "standard_id": "adam-common-statistical-analysis-examples"
    },
    {
      "citation_status": "RESOLVED",
      "decision": "REVIEW_AMBIGUOUS",
      "normalized_atomic_requirement": "ADaM Examples in Commonly Used Statistical Analysis Methods Version 1.0 \u00a9 2011 Clinical Data Interchange Standards Consortium, Inc. All rights reserved Page 37 FINAL December, 2011 Table 2.6.1.2 Analysis Variable Metadata for Multivariate ANOV A Example20 Dataset Name Parameter Identifier Variable Name Variable Label Variable Type Display Format Codelist...",
      "reason": "example_may_contain_derivation_logic",
      "rule_id": "adam-common-statistical-analysis-examples:784af72631b48e10",
      "rule_type": "CONTROLLED_TERMINOLOGY",
      "shard": "adam-common-statistical-analysis-examples.json",
      "source_section_classification": "CONTROLLED_TERMINOLOGY",
      "standard_id": "adam-common-statistical-analysis-examples"
    },
    {
      "citation_status": "RESOLVED",
      "decision": "REVIEW_AMBIGUOUS",
      "normalized_atomic_requirement": "ADaM Examples in Commonly Used Statistical Analysis Methods Version 1.0 \u00a9 2011 Clinical Data Interchange Standards Consortium, Inc. All rights reserved Page 53 FINAL December, 2011 Table 2.7.3.1 Analysis Variable Metadata for Repeated Measures Analysis of Crossover Example - ADFEV 25 Dataset Name Parameter Identifier Variable Name Variable Label Variable...",
      "reason": "example_may_contain_derivation_logic",
      "rule_id": "adam-common-statistical-analysis-examples:785330e6302b0830",
      "rule_type": "CONTROLLED_TERMINOLOGY",
      "shard": "adam-common-statistical-analysis-examples.json",
      "source_section_classification": "CONTROLLED_TERMINOLOGY",
      "standard_id": "adam-common-statistical-analysis-examples"
    },
    {
      "citation_status": "RESOLVED",
      "decision": "REVIEW_AMBIGUOUS",
      "normalized_atomic_requirement": "ADaM Examples in Commonly Used Statistical Analysis Methods Version 1.0 \u00a9 2011 Clinical Data Interchange Standards Consortium, Inc. All rights reserved Page 55 FINAL December, 2011 Table 2.7.3.1 Analysis Variable Metadata for Repeated Measures Analysis of Crossover Example - ADFEV 25 Dataset Name Parameter Identifier Variable Name Variable Label Variable...",
      "reason": "example_may_contain_derivation_logic",
      "rule_id": "adam-common-statistical-analysis-examples:7aa6b8eec9f5b66d",
      "rule_type": "CONTROLLED_TERMINOLOGY",
      "shard": "adam-common-statistical-analysis-examples.json",
      "source_section_classification": "CONTROLLED_TERMINOLOGY",
      "standard_id": "adam-common-statistical-analysis-examples"
    },
    {
      "citation_status": "RESOLVED",
      "decision": "REVIEW_AMBIGUOUS",
      "normalized_atomic_requirement": "ADaM Examples in Commonly Used Statistical Analysis Methods Version 1.0 \u00a9 2011 Clinical Data Interchange Standards Consortium, Inc. All rights reserved Page 62 FINAL December, 2011 Table 2.7.3.3 Analysis Variable Metadata for Repeated Measures Analysis of Crossover Example - ADFEV AUC 27 Dataset Name Parameter Identifier Variable Name Variable Label Varia...",
      "reason": "example_may_contain_derivation_logic",
      "rule_id": "adam-common-statistical-analysis-examples:926de0c4cef91c40",
      "rule_type": "CONTROLLED_TERMINOLOGY",
      "shard": "adam-common-statistical-analysis-examples.json",
      "source_section_classification": "CONTROLLED_TERMINOLOGY",
      "standard_id": "adam-common-statistical-analysis-examples"
    },
    {
      "citation_status": "RESOLVED",
      "decision": "REVIEW_AMBIGUOUS",
      "normalized_atomic_requirement": "N= FAS (full analysis set) population Based on a mixed effects repeated measures model with terms for site, subject within site, treatment and period Response is defined as change from baseline; Common Baseline Mean (SE) = x.xxx (x.xxx)",
      "reason": "example_may_contain_derivation_logic",
      "rule_id": "adam-common-statistical-analysis-examples:9e88981d48eace9d",
      "rule_type": "DEFINITION",
      "shard": "adam-common-statistical-analysis-examples.json",
      "source_section_classification": "DEFINITION",
      "standard_id": "adam-common-statistical-analysis-examples"
    },
    {
      "citation_status": "RESOLVED",
      "decision": "REVIEW_AMBIGUOUS",
      "normalized_atomic_requirement": "ADaM Examples in Commonly Used Statistical Analysis Methods Version 1.0 \u00a9 2011 Clinical Data Interchange Standards Consortium, Inc. All rights reserved Page 54 FINAL December, 2011 Table 2.7.3.1 Analysis Variable Metadata for Repeated Measures Analysis of Crossover Example - ADFEV 25 Dataset Name Parameter Identifier Variable Name Variable Label Variable...",
      "reason": "example_may_contain_derivation_logic",
      "rule_id": "adam-common-statistical-analysis-examples:ae6f5a0696c48262",
      "rule_type": "CONTROLLED_TERMINOLOGY",
      "shard": "adam-common-statistical-analysis-examples.json",
      "source_section_classification": "CONTROLLED_TERMINOLOGY",
      "standard_id": "adam-common-statistical-analysis-examples"
    },
    {
      "citation_status": "RESOLVED",
      "decision": "REVIEW_AMBIGUOUS",
      "normalized_atomic_requirement": "ADaM Examples in Commonly Used Statistical Analysis Methods Version 1.0 \u00a9 2011 Clinical Data Interchange Standards Consortium, Inc. All rights reserved Page 11 FINAL December, 2011 Table 2.1.1.2 Analysis Variable Metadata for ANCOV A Example3 Dataset Name Parameter Identifier Variable Name Variable Label Variable Type Display Format Codelist / Controlled...",
      "reason": "example_may_contain_derivation_logic",
      "rule_id": "adam-common-statistical-analysis-examples:b108cb9cb3041a2f",
      "rule_type": "CONTROLLED_TERMINOLOGY",
      "shard": "adam-common-statistical-analysis-examples.json",
      "source_section_classification": "CONTROLLED_TERMINOLOGY",
      "standard_id": "adam-common-statistical-analysis-examples"
    },
    {
      "citation_status": "RESOLVED",
      "decision": "REVIEW_AMBIGUOUS",
      "normalized_atomic_requirement": "ADaM Examples in Commonly Used Statistical Analysis Methods Version 1.0 \u00a9 2011 Clinical Data Interchange Standards Consortium, Inc. All rights reserved Page 48 FINAL December, 2011 Table 2.7.2.1 Analysis Variable Metadata for Repeated Measures Analysis of Crossover Example - ADSL 24 Dataset Name Variable Name Variable Label Variable Type Display Format Co...",
      "reason": "example_may_contain_derivation_logic",
      "rule_id": "adam-common-statistical-analysis-examples:bd66b1282a6f2a78",
      "rule_type": "CONTROLLED_TERMINOLOGY",
      "shard": "adam-common-statistical-analysis-examples.json",
      "source_section_classification": "CONTROLLED_TERMINOLOGY",
      "standard_id": "adam-common-statistical-analysis-examples"
    },
    {
      "citation_status": "RESOLVED",
      "decision": "REVIEW_AMBIGUOUS",
      "normalized_atomic_requirement": "ADaM Examples in Commonly Used Statistical Analysis Methods Version 1.0 \u00a9 2011 Clinical Data Interchange Standards Consortium, Inc. All rights reserved Page 60 FINAL December, 2011 Table 2.7.3.3 Analysis Variable Metadata for Repeated Measures Analysis of Crossover Example - ADFEV AUC 27 Dataset Name Parameter Identifier Variable Name Variable Label Varia...",
      "reason": "example_may_contain_derivation_logic",
      "rule_id": "adam-common-statistical-analysis-examples:d516bbb921758f9b",
      "rule_type": "CONTROLLED_TERMINOLOGY",
      "shard": "adam-common-statistical-analysis-examples.json",
      "source_section_classification": "CONTROLLED_TERMINOLOGY",
      "standard_id": "adam-common-statistical-analysis-examples"
    },
    {
      "citation_status": "RESOLVED",
      "decision": "REVIEW_AMBIGUOUS",
      "normalized_atomic_requirement": "ADaM Examples in Commonly Used Statistical Analysis Methods Version 1.0 \u00a9 2011 Clinical Data Interchange Standards Consortium, Inc. All rights reserved Page 38 FINAL December, 2011 Table 2.6.1.2 Analysis Variable Metadata for Multivariate ANOV A Example20 Dataset Name Parameter Identifier Variable Name Variable Label Variable Type Display Format Codelist...",
      "reason": "example_may_contain_derivation_logic",
      "rule_id": "adam-common-statistical-analysis-examples:d602a2dd9a362e8c",
      "rule_type": "CONTROLLED_TERMINOLOGY",
      "shard": "adam-common-statistical-analysis-examples.json",
      "source_section_classification": "CONTROLLED_TERMINOLOGY",
      "standard_id": "adam-common-statistical-analysis-examples"
    },
    {
      "citation_status": "RESOLVED",
      "decision": "REVIEW_AMBIGUOUS",
      "normalized_atomic_requirement": "Table 2.6.1.2 Analysis Variable Metadata for Multivariate ANOV A Example20 Dataset Name Parameter Identifier Variable Name Variable Label Variable Type Display Format Codelist / Controlled Terms Source / Derivation ADMOOD *ALL* STUDYID Study Identifier text $6 ADSL.STUDYID ADMOOD *ALL* USUBJID Unique Subject Identifier text $10 ADSL.USUBJID ADMOOD *ALL* T...",
      "reason": "example_may_contain_derivation_logic",
      "rule_id": "adam-common-statistical-analysis-examples:dd9a74523d34ae29",
      "rule_type": "CONTROLLED_TERMINOLOGY",
      "shard": "adam-common-statistical-analysis-examples.json",
      "source_section_classification": "CONTROLLED_TERMINOLOGY",
      "standard_id": "adam-common-statistical-analysis-examples"
    },
    {
      "citation_status": "RESOLVED",
      "decision": "REVIEW_AMBIGUOUS",
      "normalized_atomic_requirement": "Table 2.7.3.1 Analysis Variable Metadata for Repeated Measures Analysis of Crossover Example - ADFEV 25 Dataset Name Parameter Identifier Variable Name Variable Label Variable Type Display Format Codelist / Controlled Terms Source / Derivation ADFEV *ALL* STUDYID Study Identifier text $15 ADSL.STUDYID",
      "reason": "example_may_contain_derivation_logic",
      "rule_id": "adam-common-statistical-analysis-examples:deaff079ed838b49",
      "rule_type": "CONTROLLED_TERMINOLOGY",
      "shard": "adam-common-statistical-analysis-examples.json",
      "source_section_classification": "CONTROLLED_TERMINOLOGY",
      "standard_id": "adam-common-statistical-analysis-examples"
    },
    {
      "citation_status": "RESOLVED",
      "decision": "REVIEW_AMBIGUOUS",
      "normalized_atomic_requirement": "ADaM Examples in Commonly Used Statistical Analysis Methods Version 1.0 \u00a9 2011 Clinical Data Interchange Standards Consortium, Inc. All rights reserved Page 51 FINAL December, 2011 Table 2.7.3.1 Analysis Variable Metadata for Repeated Measures Analysis of Crossover Example - ADFEV 25 Dataset Name Parameter Identifier Variable Name Variable Label Variable...",
      "reason": "example_may_contain_derivation_logic",
      "rule_id": "adam-common-statistical-analysis-examples:e0a9a893d8047c27",
      "rule_type": "CONTROLLED_TERMINOLOGY",
      "shard": "adam-common-statistical-analysis-examples.json",
      "source_section_classification": "CONTROLLED_TERMINOLOGY",
      "standard_id": "adam-common-statistical-analysis-examples"
    },
    {
      "citation_status": "RESOLVED",
      "decision": "REVIEW_AMBIGUOUS",
      "normalized_atomic_requirement": "ADaM Examples in Commonly Used Statistical Analysis Methods Version 1.0 \u00a9 2011 Clinical Data Interchange Standards Consortium, Inc. All rights reserved Page 56 FINAL December, 2011 Table 2.7.3.1 Analysis Variable Metadata for Repeated Measures Analysis of Crossover Example - ADFEV 25 Dataset Name Parameter Identifier Variable Name Variable Label Variable...",
      "reason": "example_may_contain_derivation_logic",
      "rule_id": "adam-common-statistical-analysis-examples:e6f2f6ef7509b968",
      "rule_type": "CONTROLLED_TERMINOLOGY",
      "shard": "adam-common-statistical-analysis-examples.json",
      "source_section_classification": "CONTROLLED_TERMINOLOGY",
      "standard_id": "adam-common-statistical-analysis-examples"
    },
    {
      "citation_status": "RESOLVED",
      "decision": "REVIEW_AMBIGUOUS",
      "normalized_atomic_requirement": "ADaM Examples in Commonly Used Statistical Analysis Methods Version 1.0 \u00a9 2011 Clinical Data Interchange Standards Consortium, Inc. All rights reserved Page 28 FINAL December, 2011 Table 2.5.1.2 Analysis Variable Metadata for Logistic Regression Analysis Example15 Dataset Name Parameter Identifier Variable Name Variable Label Variable Type Display Format...",
      "reason": "example_may_contain_derivation_logic",
      "rule_id": "adam-common-statistical-analysis-examples:eb386e22530dfa30",
      "rule_type": "CONTROLLED_TERMINOLOGY",
      "shard": "adam-common-statistical-analysis-examples.json",
      "source_section_classification": "CONTROLLED_TERMINOLOGY",
      "standard_id": "adam-common-statistical-analysis-examples"
    },
    {
      "citation_status": "RESOLVED",
      "decision": "REVIEW_AMBIGUOUS",
      "normalized_atomic_requirement": "ADaM Examples in Commonly Used Statistical Analysis Methods Version 1.0 \u00a9 2011 Clinical Data Interchange Standards Consortium, Inc. All rights reserved Page 36 FINAL December, 2011 Table 2.6.1.2 Analysis Variable Metadata for Multivariate ANOV A Example20 Dataset Name Parameter Identifier Variable Name Variable Label Variable Type Display Format Codelist...",
      "reason": "example_may_contain_derivation_logic",
      "rule_id": "adam-common-statistical-analysis-examples:ebfee1266c8654b3",
      "rule_type": "CONTROLLED_TERMINOLOGY",
      "shard": "adam-common-statistical-analysis-examples.json",
      "source_section_classification": "CONTROLLED_TERMINOLOGY",
      "standard_id": "adam-common-statistical-analysis-examples"
    },
    {
      "citation_status": "RESOLVED",
      "decision": "REVIEW_AMBIGUOUS",
      "normalized_atomic_requirement": "ADaM Examples in Commonly Used Statistical Analysis Methods Version 1.0 \u00a9 2011 Clinical Data Interchange Standards Consortium, Inc. All rights reserved Page 47 FINAL December, 2011 Table 2.7.2.1 Analysis Variable Metadata for Repeated Measures Analysis of Crossover Example - ADSL 24 Dataset Name Variable Name Variable Label Variable Type Display Format Co...",
      "reason": "example_may_contain_derivation_logic",
      "rule_id": "adam-common-statistical-analysis-examples:f2f84817799f4206",
      "rule_type": "CONTROLLED_TERMINOLOGY",
      "shard": "adam-common-statistical-analysis-examples.json",
      "source_section_classification": "CONTROLLED_TERMINOLOGY",
      "standard_id": "adam-common-statistical-analysis-examples"
    },
    {
      "citation_status": "RESOLVED",
      "decision": "REVIEW_AMBIGUOUS",
      "normalized_atomic_requirement": "ADaM Examples in Commonly Used Statistical Analysis Methods Version 1.0 \u00a9 2011 Clinical Data Interchange Standards Consortium, Inc. All rights reserved Page 29 FINAL December, 2011 Table 2.5.1.2 Analysis Variable Metadata for Logistic Regression Analysis Example15 Dataset Name Parameter Identifier Variable Name Variable Label Variable Type Display Format...",
      "reason": "example_may_contain_derivation_logic",
      "rule_id": "adam-common-statistical-analysis-examples:f619f99942d2f0bf",
      "rule_type": "CONTROLLED_TERMINOLOGY",
      "shard": "adam-common-statistical-analysis-examples.json",
      "source_section_classification": "CONTROLLED_TERMINOLOGY",
      "standard_id": "adam-common-statistical-analysis-examples"
    },
    {
      "citation_status": "RESOLVED",
      "decision": "REVIEW_AMBIGUOUS",
      "normalized_atomic_requirement": "It should be noted that how repeated codelists are included is a decision to be made by the producer of the data and is impacted by the choice of stylesheet.",
      "reason": "example_may_contain_derivation_logic",
      "rule_id": "adam-common-statistical-analysis-examples:f7d7db93b3271811",
      "rule_type": "CONTROLLED_TERMINOLOGY",
      "shard": "adam-common-statistical-analysis-examples.json",
      "source_section_classification": "CONTROLLED_TERMINOLOGY",
      "standard_id": "adam-common-statistical-analysis-examples"
    },
    {
      "citation_status": "RESOLVED",
      "decision": "REVIEW_AMBIGUOUS",
      "normalized_atomic_requirement": "ADaM Examples in Commonly Used Statistical Analysis Methods Version 1.0 \u00a9 2011 Clinical Data Interchange Standards Consortium, Inc. All rights reserved Page 46 FINAL December, 2011 Table 2.7.2.1 Analysis Variable Metadata for Repeated Measures Analysis of Crossover Example - ADSL 24 Dataset Name Variable Name Variable Label Variable Type Display Format Co...",
      "reason": "example_may_contain_derivation_logic",
      "rule_id": "adam-common-statistical-analysis-examples:fa2bd2d27a2a6cda",
      "rule_type": "CONTROLLED_TERMINOLOGY",
      "shard": "adam-common-statistical-analysis-examples.json",
      "source_section_classification": "CONTROLLED_TERMINOLOGY",
      "standard_id": "adam-common-statistical-analysis-examples"
    },
    {
      "citation_status": "RESOLVED",
      "decision": "REVIEW_AMBIGUOUS",
      "normalized_atomic_requirement": "This is not an implication that all SDTM or ADaM data need to be incorporated into one dataset; only the ones used for the derivations should be included.",
      "reason": "example_may_contain_derivation_logic",
      "rule_id": "adam-traceability-examples:04f698f5f3c5fe4b",
      "rule_type": "OPERATIVE_RULE",
      "shard": "adam-traceability-examples.json",
      "source_section_classification": "OPERATIVE_RULE",
      "standard_id": "adam-traceability-examples"
    },
    {
      "citation_status": "RESOLVED",
      "decision": "REVIEW_AMBIGUOUS",
      "normalized_atomic_requirement": "This variable may be used to look at adverse events associated with a particular infusion (e.g.",
      "reason": "example_may_contain_derivation_logic",
      "rule_id": "adam-traceability-examples:05a5b2aa8d15748d",
      "rule_type": "CONTROLLED_TERMINOLOGY",
      "shard": "adam-traceability-examples.json",
      "source_section_classification": "CONTROLLED_TERMINOLOGY",
      "standard_id": "adam-traceability-examples"
    },
    {
      "citation_status": "RESOLVED",
      "decision": "REVIEW_AMBIGUOUS",
      "normalized_atomic_requirement": "\u00a9 2022 Clinical Data Interchange Standards Consortium, Inc. All rights reserved Page 32 2022-05-12 2.8.3 Traceability Metadata 8 Table 2.8.3.1. Variable Metadata for ADEVENT ADEVENT Variable Metadata Variable Name Variable Label Type Codelist / Controlled Terms Variable Metadata STUDYID Study Identifier Char xx.STUDYID that corresponds to input dataset us...",
      "reason": "example_may_contain_derivation_logic",
      "rule_id": "adam-traceability-examples:295164a3a94ad619",
      "rule_type": "CONTROLLED_TERMINOLOGY",
      "shard": "adam-traceability-examples.json",
      "source_section_classification": "CONTROLLED_TERMINOLOGY",
      "standard_id": "adam-traceability-examples"
    },
    {
      "citation_status": "RESOLVED",
      "decision": "REVIEW_AMBIGUOUS",
      "normalized_atomic_requirement": "\u00a9 2022 Clinical Data Interchange Standards Consortium, Inc. All rights reserved Page 33 2022-05-12 Variable Name Variable Label Type Codelist / Controlled Terms Variable Metadata CNSR Censored Num 1; 0 Censoring Value. Set to 1 if value is censored based on rules. See parameter-level metadata (Table 2.8.3.4) EVNTDESC Event or Censoring Description Char DO...",
      "reason": "example_may_contain_derivation_logic",
      "rule_id": "adam-traceability-examples:42354ea4604dd1e1",
      "rule_type": "CONTROLLED_TERMINOLOGY",
      "shard": "adam-traceability-examples.json",
      "source_section_classification": "CONTROLLED_TERMINOLOGY",
      "standard_id": "adam-traceability-examples"
    },
    {
      "citation_status": "RESOLVED",
      "decision": "REVIEW_AMBIGUOUS",
      "normalized_atomic_requirement": "Dataset Metadata for ADVS ADVS Dataset Metadata Dataset Name Dataset Description Dataset Structure Class of Dataset ADVS Vital Signs Analysis Dataset One record per subject per visit per parameter BASIC DATA STRUCTURE",
      "reason": "example_may_contain_derivation_logic",
      "rule_id": "adam-traceability-examples:533d269521f922b0",
      "rule_type": "OPERATIVE_RULE",
      "shard": "adam-traceability-examples.json",
      "source_section_classification": "OPERATIVE_RULE",
      "standard_id": "adam-traceability-examples"
    },
    {
      "citation_status": "RESOLVED",
      "decision": "REVIEW_AMBIGUOUS",
      "normalized_atomic_requirement": "There are multiple approaches to building the OCCDS dataset to be used for this analysis. The approach demonstrated here is to start with the SDTM datasets, create ASTDTM/AENDTM/AVISIT/INFNUM from EX, and use them in combination with a custom query on Adverse Events of Special Interest (AESIs) to derive the events of interest in ADAE. An important feature...",
      "reason": "example_may_contain_derivation_logic",
      "rule_id": "adam-traceability-examples:55402c82470b3014",
      "rule_type": "CONTROLLED_TERMINOLOGY",
      "shard": "adam-traceability-examples.json",
      "source_section_classification": "CONTROLLED_TERMINOLOGY",
      "standard_id": "adam-traceability-examples"
    },
    {
      "citation_status": "RESOLVED",
      "decision": "REVIEW_AMBIGUOUS",
      "normalized_atomic_requirement": "Table 2.2.3.2. Variable Metadata for ADVS ADVS Variable Metadata Variable Name Variable Label Type Codelist/ Controlled Terms Source/Derivation/Comment STUDYID Study Identifier text VS.STUDYID USUBJID Unique Subject Identifier text VS.USUBJID TRTA Actual Treatment text ADSL.TRT01A TRTSDT Date of First Exposure to Treatment integer ADSL.TRTSDT PARAM Parame...",
      "reason": "example_may_contain_derivation_logic",
      "rule_id": "adam-traceability-examples:58f4a6e002b59165",
      "rule_type": "CONTROLLED_TERMINOLOGY",
      "shard": "adam-traceability-examples.json",
      "source_section_classification": "CONTROLLED_TERMINOLOGY",
      "standard_id": "adam-traceability-examples"
    },
    {
      "citation_status": "RESOLVED",
      "decision": "REVIEW_AMBIGUOUS",
      "normalized_atomic_requirement": "\u00a9 2022 Clinical Data Interchange Standards Consortium, Inc. All rights reserved Page 18 2022-05-12 Variable Name Variable Label Type Codelist/Controlled Terms Variable Metadata Treatment Variablea Treatment Variable Label Char Treatment/Treatment Group that will be used in the analysis. At least one treatment variable needs to be included in the dataset....",
      "reason": "example_may_contain_derivation_logic",
      "rule_id": "adam-traceability-examples:75e046e4ee2ca8ac",
      "rule_type": "CONTROLLED_TERMINOLOGY",
      "shard": "adam-traceability-examples.json",
      "source_section_classification": "CONTROLLED_TERMINOLOGY",
      "standard_id": "adam-traceability-examples"
    },
    {
      "citation_status": "RESOLVED",
      "decision": "REVIEW_AMBIGUOUS",
      "normalized_atomic_requirement": "Note that the suffix \"I\" or \"C\" must match between PARAMCD.",
      "reason": "example_may_contain_derivation_logic",
      "rule_id": "adam-traceability-examples:845e0f47660f4d67",
      "rule_type": "OPERATIVE_RULE",
      "shard": "adam-traceability-examples.json",
      "source_section_classification": "OPERATIVE_RULE",
      "standard_id": "adam-traceability-examples"
    },
    {
      "citation_status": "RESOLVED",
      "decision": "REVIEW_AMBIGUOUS",
      "normalized_atomic_requirement": "Table 2.8.3.2. Variable Metadata for ADTTE ADTTE Variable Metadata Variable Name Variable Label Type Codelist / Controlled Terms Variable Metadata STUDYID Study Identifier Char ADEVENT.STUDYID USUBJID Unique Subject Identifier Char ADEVENT.USUBJID Treatment Variablea Treatment Variable Label Char Treatment/Treatment Group that will be used in the analysis...",
      "reason": "example_may_contain_derivation_logic",
      "rule_id": "adam-traceability-examples:a6f2ffcbf90d0654",
      "rule_type": "CONTROLLED_TERMINOLOGY",
      "shard": "adam-traceability-examples.json",
      "source_section_classification": "CONTROLLED_TERMINOLOGY",
      "standard_id": "adam-traceability-examples"
    },
    {
      "citation_status": "RESOLVED",
      "decision": "REVIEW_AMBIGUOUS",
      "normalized_atomic_requirement": "Note that the suffix \"I\" or \"C\" must match between PARAMCD.",
      "reason": "example_may_contain_derivation_logic",
      "rule_id": "adam-traceability-examples:b8600d25540e7df9",
      "rule_type": "CONTROLLED_TERMINOLOGY",
      "shard": "adam-traceability-examples.json",
      "source_section_classification": "CONTROLLED_TERMINOLOGY",
      "standard_id": "adam-traceability-examples"
    },
    {
      "citation_status": "RESOLVED",
      "decision": "REVIEW_AMBIGUOUS",
      "normalized_atomic_requirement": "Dataset-level Metadata for ADEG ADEG Dataset Metadata Dataset Dataset Description Data Structure Class of Dataset ADEG Electrocardiogram Analysis Dataset One record per subject, parameter, analysis visit, reference ID, derivation type BASIC DATA STRUCTURE Table 2.7.3.2.",
      "reason": "example_may_contain_derivation_logic",
      "rule_id": "adam-traceability-examples:c9c4ff8d5439d28f",
      "rule_type": "CONTROLLED_TERMINOLOGY",
      "shard": "adam-traceability-examples.json",
      "source_section_classification": "CONTROLLED_TERMINOLOGY",
      "standard_id": "adam-traceability-examples"
    },
    {
      "citation_status": "RESOLVED",
      "decision": "REVIEW_AMBIGUOUS",
      "normalized_atomic_requirement": "\u00a9 2022 Clinical Data Interchange Standards Consortium, Inc. All rights reserved Page 21 2022-05-12 Table 2.5.3.2. Variable Metadata for ADAECE ADAECE Variable Metadata Variable Namea Variable Label Codelists Variable Metadata STUDYID Study Identifier XYZ ADSL.STUDYID USUBJID Unique Subject Identifier ADSL.USUBJID SAFFL Safety Population Flag 'Y'='Yes' 'N'...",
      "reason": "example_may_contain_derivation_logic",
      "rule_id": "adam-traceability-examples:d8ec656a745de11f",
      "rule_type": "CONTROLLED_TERMINOLOGY",
      "shard": "adam-traceability-examples.json",
      "source_section_classification": "CONTROLLED_TERMINOLOGY",
      "standard_id": "adam-traceability-examples"
    },
    {
      "citation_status": "RESOLVED",
      "decision": "REVIEW_AMBIGUOUS",
      "normalized_atomic_requirement": "Dataset Metadata for ADQST ADQST Dataset Metadata Dataset Description Class Structure Description ADQST Transposed ADQS ADAM OTHER One record per subject This dataset is derived from ADQS by transposing CHG by USUBJID, using the values of PARAMCD as new variable names and the values of PARAM as new variable labels",
      "reason": "example_may_contain_derivation_logic",
      "rule_id": "adam-traceability-examples:ee9fa4fae967929f",
      "rule_type": "OPERATIVE_RULE",
      "shard": "adam-traceability-examples.json",
      "source_section_classification": "OPERATIVE_RULE",
      "standard_id": "adam-traceability-examples"
    },
    {
      "citation_status": "RESOLVED",
      "decision": "REVIEW_AMBIGUOUS",
      "normalized_atomic_requirement": "ADSL and/or other ADaM datasets that contain treatment variables and other covariates may also be included as input in the creation of ADHYP.",
      "reason": "example_may_contain_derivation_logic",
      "rule_id": "adam-traceability-examples:fb930ce800b91e53",
      "rule_type": "CONTROLLED_TERMINOLOGY",
      "shard": "adam-traceability-examples.json",
      "source_section_classification": "CONTROLLED_TERMINOLOGY",
      "standard_id": "adam-traceability-examples"
    },
    {
      "citation_status": "RESOLVED",
      "decision": "REVIEW_AMBIGUOUS",
      "normalized_atomic_requirement": "\u00a9 2022 Clinical Data Interchange Standards Consortium, Inc. All rights reserved Page 46 2022-05-12 Table 2.12.3.3. Variable Metadata for ADTLS ADTLS Variable Metadata Variable Name Variable Label Where Condition Variable Metadata STUDYID Study Identifier ADSL.STUDYID USUBJID Unique Subject Identifier ADSL.USUBJID SRCDOM Source Data Copy records from ADLB...",
      "reason": "example_may_contain_derivation_logic",
      "rule_id": "adam-traceability-examples:ffb1405776eb7062",
      "rule_type": "CONTROLLED_TERMINOLOGY",
      "shard": "adam-traceability-examples.json",
      "source_section_classification": "CONTROLLED_TERMINOLOGY",
      "standard_id": "adam-traceability-examples"
    },
    {
      "citation_status": "RESOLVED",
      "decision": "REVIEW_AMBIGUOUS",
      "normalized_atomic_requirement": "For example, this may be the randomization date or the date of first study therapy exposure.",
      "reason": "example_only_atomic_requirement",
      "rule_id": "adamig:8553e7de5e668725",
      "rule_type": "CONTROLLED_TERMINOLOGY",
      "shard": "adamig.json",
      "source_section_classification": "CONTROLLED_TERMINOLOGY",
      "standard_id": "adamig"
    },
    {
      "citation_status": "RESOLVED",
      "decision": "REVIEW_AMBIGUOUS",
      "normalized_atomic_requirement": "For example, Genome Reference Consortium Human Build 38 patch release 13 may be represented as \"GRCh38.p13\".",
      "reason": "example_only_atomic_requirement",
      "rule_id": "sdtmig:ca11fe1807399469",
      "rule_type": "CONTROLLED_TERMINOLOGY",
      "shard": "sdtmig.json",
      "source_section_classification": "CONTROLLED_TERMINOLOGY",
      "standard_id": "sdtmig"
    }
  ],
  "schema_version": "filter-001-sdtm-adam-transfer-relevance-v1"
}