{
  "candidates": [
    {
      "citation_status": "UNRESOLVED",
      "decision": "REMOVE_NON_RELEVANT",
      "normalized_atomic_requirement": "All rights reserved Page 13 FINAL May 8, 2012",
      "reason": "document_noise_header_footer_page_date",
      "rule_id": "adam-bds-tte:01180be5394d99be",
      "rule_type": "OPERATIVE_RULE",
      "shard": "adam-bds-tte.json",
      "source_section_classification": "OPERATIVE_RULE",
      "standard_id": "adam-bds-tte"
    },
    {
      "citation_status": "UNRESOLVED",
      "decision": "REMOVE_NON_RELEVANT",
      "normalized_atomic_requirement": "All rights reserved Page 12 FINAL May 8, 2012",
      "reason": "document_noise_header_footer_page_date",
      "rule_id": "adam-bds-tte:0dbf2de0ea7c6d3c",
      "rule_type": "OPERATIVE_RULE",
      "shard": "adam-bds-tte.json",
      "source_section_classification": "OPERATIVE_RULE",
      "standard_id": "adam-bds-tte"
    },
    {
      "citation_status": "UNRESOLVED",
      "decision": "REMOVE_NON_RELEVANT",
      "normalized_atomic_requirement": "All rights reserved Page 14 FINAL May 8, 2012",
      "reason": "document_noise_header_footer_page_date",
      "rule_id": "adam-bds-tte:134660deea5fd0fb",
      "rule_type": "OPERATIVE_RULE",
      "shard": "adam-bds-tte.json",
      "source_section_classification": "OPERATIVE_RULE",
      "standard_id": "adam-bds-tte"
    },
    {
      "citation_status": "UNRESOLVED",
      "decision": "REMOVE_NON_RELEVANT",
      "normalized_atomic_requirement": "Representations and Warranties; Limitations of Liability, and Disclaimers CDISC Patent Disclaimers It is possible that implementation of and compliance with this standard may require use of subject matter covered by patent rights.",
      "reason": "legal_patent_license_disclaimer",
      "rule_id": "adam-bds-tte:1ae8b8581bf93d73",
      "rule_type": "OPERATIVE_RULE",
      "shard": "adam-bds-tte.json",
      "source_section_classification": "OPERATIVE_RULE",
      "standard_id": "adam-bds-tte"
    },
    {
      "citation_status": "UNRESOLVED",
      "decision": "REMOVE_NON_RELEVANT",
      "normalized_atomic_requirement": "All rights reserved Page 27 FINAL May 8, 2012",
      "reason": "document_noise_header_footer_page_date",
      "rule_id": "adam-bds-tte:23762d55cd5cd357",
      "rule_type": "OPERATIVE_RULE",
      "shard": "adam-bds-tte.json",
      "source_section_classification": "OPERATIVE_RULE",
      "standard_id": "adam-bds-tte"
    },
    {
      "citation_status": "UNRESOLVED",
      "decision": "REMOVE_NON_RELEVANT",
      "normalized_atomic_requirement": "All rights reserved Page 29 FINAL May 8, 2012",
      "reason": "document_noise_header_footer_page_date",
      "rule_id": "adam-bds-tte:2e1dbca521c3e9d1",
      "rule_type": "OPERATIVE_RULE",
      "shard": "adam-bds-tte.json",
      "source_section_classification": "OPERATIVE_RULE",
      "standard_id": "adam-bds-tte"
    },
    {
      "citation_status": "UNRESOLVED",
      "decision": "REMOVE_NON_RELEVANT",
      "normalized_atomic_requirement": "All rights reserved Page 31 FINAL May 8, 2012",
      "reason": "document_noise_header_footer_page_date",
      "rule_id": "adam-bds-tte:2f7244f2b4036930",
      "rule_type": "OPERATIVE_RULE",
      "shard": "adam-bds-tte.json",
      "source_section_classification": "OPERATIVE_RULE",
      "standard_id": "adam-bds-tte"
    },
    {
      "citation_status": "UNRESOLVED",
      "decision": "REMOVE_NON_RELEVANT",
      "normalized_atomic_requirement": "All rights reserved Page 10 FINAL May 8, 2012",
      "reason": "document_noise_header_footer_page_date",
      "rule_id": "adam-bds-tte:32e30ebd88f46c77",
      "rule_type": "OPERATIVE_RULE",
      "shard": "adam-bds-tte.json",
      "source_section_classification": "OPERATIVE_RULE",
      "standard_id": "adam-bds-tte"
    },
    {
      "citation_status": "UNRESOLVED",
      "decision": "REMOVE_NON_RELEVANT",
      "normalized_atomic_requirement": "All rights reserved Page 11 FINAL May 8, 2012",
      "reason": "document_noise_header_footer_page_date",
      "rule_id": "adam-bds-tte:3b0d245051f00207",
      "rule_type": "OPERATIVE_RULE",
      "shard": "adam-bds-tte.json",
      "source_section_classification": "OPERATIVE_RULE",
      "standard_id": "adam-bds-tte"
    },
    {
      "citation_status": "UNRESOLVED",
      "decision": "REMOVE_NON_RELEVANT",
      "normalized_atomic_requirement": "All rights reserved Page 3 FINAL May 8, 2012",
      "reason": "document_noise_header_footer_page_date",
      "rule_id": "adam-bds-tte:4a20529e491fe418",
      "rule_type": "OPERATIVE_RULE",
      "shard": "adam-bds-tte.json",
      "source_section_classification": "OPERATIVE_RULE",
      "standard_id": "adam-bds-tte"
    },
    {
      "citation_status": "UNRESOLVED",
      "decision": "REMOVE_NON_RELEVANT",
      "normalized_atomic_requirement": "All rights reserved Page 9 FINAL May 8, 2012",
      "reason": "document_noise_header_footer_page_date",
      "rule_id": "adam-bds-tte:5a1b1141bc184833",
      "rule_type": "OPERATIVE_RULE",
      "shard": "adam-bds-tte.json",
      "source_section_classification": "OPERATIVE_RULE",
      "standard_id": "adam-bds-tte"
    },
    {
      "citation_status": "UNRESOLVED",
      "decision": "REMOVE_NON_RELEVANT",
      "normalized_atomic_requirement": "All rights reserved Page 26 FINAL May 8, 2012",
      "reason": "document_noise_header_footer_page_date",
      "rule_id": "adam-bds-tte:5d2fbe6c2c97e697",
      "rule_type": "OPERATIVE_RULE",
      "shard": "adam-bds-tte.json",
      "source_section_classification": "OPERATIVE_RULE",
      "standard_id": "adam-bds-tte"
    },
    {
      "citation_status": "UNRESOLVED",
      "decision": "REMOVE_NON_RELEVANT",
      "normalized_atomic_requirement": "All rights reserved Page 17 FINAL May 8, 2012",
      "reason": "document_noise_header_footer_page_date",
      "rule_id": "adam-bds-tte:65dc1fde495d11b8",
      "rule_type": "OPERATIVE_RULE",
      "shard": "adam-bds-tte.json",
      "source_section_classification": "OPERATIVE_RULE",
      "standard_id": "adam-bds-tte"
    },
    {
      "citation_status": "UNRESOLVED",
      "decision": "REMOVE_NON_RELEVANT",
      "normalized_atomic_requirement": "All rights reserved Page 6 FINAL May 8, 2012",
      "reason": "document_noise_header_footer_page_date",
      "rule_id": "adam-bds-tte:818b9197c6076c13",
      "rule_type": "OPERATIVE_RULE",
      "shard": "adam-bds-tte.json",
      "source_section_classification": "OPERATIVE_RULE",
      "standard_id": "adam-bds-tte"
    },
    {
      "citation_status": "UNRESOLVED",
      "decision": "REMOVE_NON_RELEVANT",
      "normalized_atomic_requirement": "All rights reserved Page 16 FINAL May 8, 2012",
      "reason": "document_noise_header_footer_page_date",
      "rule_id": "adam-bds-tte:82bdc633c4bb3c5f",
      "rule_type": "OPERATIVE_RULE",
      "shard": "adam-bds-tte.json",
      "source_section_classification": "OPERATIVE_RULE",
      "standard_id": "adam-bds-tte"
    },
    {
      "citation_status": "UNRESOLVED",
      "decision": "REMOVE_NON_RELEVANT",
      "normalized_atomic_requirement": "All rights reserved Page 2 FINAL May 8, 2012",
      "reason": "document_noise_header_footer_page_date",
      "rule_id": "adam-bds-tte:889e7c63904931a0",
      "rule_type": "OPERATIVE_RULE",
      "shard": "adam-bds-tte.json",
      "source_section_classification": "OPERATIVE_RULE",
      "standard_id": "adam-bds-tte"
    },
    {
      "citation_status": "UNRESOLVED",
      "decision": "REMOVE_NON_RELEVANT",
      "normalized_atomic_requirement": "All rights reserved Page 21 FINAL May 8, 2012",
      "reason": "document_noise_header_footer_page_date",
      "rule_id": "adam-bds-tte:8ea66825d19d7e89",
      "rule_type": "OPERATIVE_RULE",
      "shard": "adam-bds-tte.json",
      "source_section_classification": "OPERATIVE_RULE",
      "standard_id": "adam-bds-tte"
    },
    {
      "citation_status": "UNRESOLVED",
      "decision": "REMOVE_NON_RELEVANT",
      "normalized_atomic_requirement": "All rights reserved Page 23 FINAL May 8, 2012",
      "reason": "document_noise_header_footer_page_date",
      "rule_id": "adam-bds-tte:9507365f45df38ae",
      "rule_type": "OPERATIVE_RULE",
      "shard": "adam-bds-tte.json",
      "source_section_classification": "OPERATIVE_RULE",
      "standard_id": "adam-bds-tte"
    },
    {
      "citation_status": "UNRESOLVED",
      "decision": "REMOVE_NON_RELEVANT",
      "normalized_atomic_requirement": "All rights reserved Page 30 FINAL May 8, 2012",
      "reason": "document_noise_header_footer_page_date",
      "rule_id": "adam-bds-tte:a452527b4cf767f5",
      "rule_type": "OPERATIVE_RULE",
      "shard": "adam-bds-tte.json",
      "source_section_classification": "OPERATIVE_RULE",
      "standard_id": "adam-bds-tte"
    },
    {
      "citation_status": "UNRESOLVED",
      "decision": "REMOVE_NON_RELEVANT",
      "normalized_atomic_requirement": "All rights reserved Page 28 FINAL May 8, 2012",
      "reason": "document_noise_header_footer_page_date",
      "rule_id": "adam-bds-tte:aaf52f2b759abcb8",
      "rule_type": "OPERATIVE_RULE",
      "shard": "adam-bds-tte.json",
      "source_section_classification": "OPERATIVE_RULE",
      "standard_id": "adam-bds-tte"
    },
    {
      "citation_status": "UNRESOLVED",
      "decision": "REMOVE_NON_RELEVANT",
      "normalized_atomic_requirement": "All rights reserved Page 15 FINAL May 8, 2012",
      "reason": "document_noise_header_footer_page_date",
      "rule_id": "adam-bds-tte:b6fc6a8e6768b258",
      "rule_type": "OPERATIVE_RULE",
      "shard": "adam-bds-tte.json",
      "source_section_classification": "OPERATIVE_RULE",
      "standard_id": "adam-bds-tte"
    },
    {
      "citation_status": "UNRESOLVED",
      "decision": "REMOVE_NON_RELEVANT",
      "normalized_atomic_requirement": "All rights reserved Page 1 FINAL May 8, 2012",
      "reason": "document_noise_header_footer_page_date",
      "rule_id": "adam-bds-tte:c1d58487ed3b40e7",
      "rule_type": "OPERATIVE_RULE",
      "shard": "adam-bds-tte.json",
      "source_section_classification": "OPERATIVE_RULE",
      "standard_id": "adam-bds-tte"
    },
    {
      "citation_status": "UNRESOLVED",
      "decision": "REMOVE_NON_RELEVANT",
      "normalized_atomic_requirement": "All rights reserved Page 24 FINAL May 8, 2012",
      "reason": "document_noise_header_footer_page_date",
      "rule_id": "adam-bds-tte:d114bda59c6b832b",
      "rule_type": "OPERATIVE_RULE",
      "shard": "adam-bds-tte.json",
      "source_section_classification": "OPERATIVE_RULE",
      "standard_id": "adam-bds-tte"
    },
    {
      "citation_status": "UNRESOLVED",
      "decision": "REMOVE_NON_RELEVANT",
      "normalized_atomic_requirement": "All rights reserved Page 22 FINAL May 8, 2012",
      "reason": "document_noise_header_footer_page_date",
      "rule_id": "adam-bds-tte:d45004bb518a6316",
      "rule_type": "OPERATIVE_RULE",
      "shard": "adam-bds-tte.json",
      "source_section_classification": "OPERATIVE_RULE",
      "standard_id": "adam-bds-tte"
    },
    {
      "citation_status": "UNRESOLVED",
      "decision": "REMOVE_NON_RELEVANT",
      "normalized_atomic_requirement": "All rights reserved Page 25 FINAL May 8, 2012",
      "reason": "document_noise_header_footer_page_date",
      "rule_id": "adam-bds-tte:e1c6800aec2bf70c",
      "rule_type": "OPERATIVE_RULE",
      "shard": "adam-bds-tte.json",
      "source_section_classification": "OPERATIVE_RULE",
      "standard_id": "adam-bds-tte"
    },
    {
      "citation_status": "UNRESOLVED",
      "decision": "REMOVE_NON_RELEVANT",
      "normalized_atomic_requirement": "All rights reserved Page 20 FINAL May 8, 2012",
      "reason": "document_noise_header_footer_page_date",
      "rule_id": "adam-bds-tte:e4cfe43cc486cd46",
      "rule_type": "OPERATIVE_RULE",
      "shard": "adam-bds-tte.json",
      "source_section_classification": "OPERATIVE_RULE",
      "standard_id": "adam-bds-tte"
    },
    {
      "citation_status": "UNRESOLVED",
      "decision": "REMOVE_NON_RELEVANT",
      "normalized_atomic_requirement": "All rights reserved Page 8 FINAL May 8, 2012",
      "reason": "document_noise_header_footer_page_date",
      "rule_id": "adam-bds-tte:ec404fa796229c60",
      "rule_type": "OPERATIVE_RULE",
      "shard": "adam-bds-tte.json",
      "source_section_classification": "OPERATIVE_RULE",
      "standard_id": "adam-bds-tte"
    },
    {
      "citation_status": "UNRESOLVED",
      "decision": "REMOVE_NON_RELEVANT",
      "normalized_atomic_requirement": "All rights reserved Page 19 FINAL May 8, 2012",
      "reason": "document_noise_header_footer_page_date",
      "rule_id": "adam-bds-tte:f2d967e1ebbfad3b",
      "rule_type": "OPERATIVE_RULE",
      "shard": "adam-bds-tte.json",
      "source_section_classification": "OPERATIVE_RULE",
      "standard_id": "adam-bds-tte"
    },
    {
      "citation_status": "UNRESOLVED",
      "decision": "REMOVE_NON_RELEVANT",
      "normalized_atomic_requirement": "All rights reserved Page 7 FINAL May 8, 2012",
      "reason": "document_noise_header_footer_page_date",
      "rule_id": "adam-bds-tte:f5be7814e2b6ace7",
      "rule_type": "OPERATIVE_RULE",
      "shard": "adam-bds-tte.json",
      "source_section_classification": "OPERATIVE_RULE",
      "standard_id": "adam-bds-tte"
    },
    {
      "citation_status": "UNRESOLVED",
      "decision": "REMOVE_NON_RELEVANT",
      "normalized_atomic_requirement": "All rights reserved Page 4 FINAL May 8, 2012",
      "reason": "document_noise_header_footer_page_date",
      "rule_id": "adam-bds-tte:f756de99515804ff",
      "rule_type": "OPERATIVE_RULE",
      "shard": "adam-bds-tte.json",
      "source_section_classification": "OPERATIVE_RULE",
      "standard_id": "adam-bds-tte"
    },
    {
      "citation_status": "UNRESOLVED",
      "decision": "REMOVE_NON_RELEVANT",
      "normalized_atomic_requirement": "All rights reserved Page 5 FINAL May 8, 2012",
      "reason": "document_noise_header_footer_page_date",
      "rule_id": "adam-bds-tte:fa726c399996c0c5",
      "rule_type": "OPERATIVE_RULE",
      "shard": "adam-bds-tte.json",
      "source_section_classification": "OPERATIVE_RULE",
      "standard_id": "adam-bds-tte"
    },
    {
      "citation_status": "UNRESOLVED",
      "decision": "REMOVE_NON_RELEVANT",
      "normalized_atomic_requirement": "All rights reserved Page 18 FINAL May 8, 2012",
      "reason": "document_noise_header_footer_page_date",
      "rule_id": "adam-bds-tte:fff323bbf544caa8",
      "rule_type": "OPERATIVE_RULE",
      "shard": "adam-bds-tte.json",
      "source_section_classification": "OPERATIVE_RULE",
      "standard_id": "adam-bds-tte"
    },
    {
      "citation_status": "UNRESOLVED",
      "decision": "REMOVE_NON_RELEVANT",
      "normalized_atomic_requirement": "1 ClinicalTrials.gov \"Basic Results\" Data Element Definitions (DRAFT), September 2010, United States National Institutes of Health, viewed 25 October 2010, <http://prsinfo.clinicaltrials.gov/results_definitions.html>.",
      "reason": "publication_management",
      "rule_id": "adam-common-statistical-analysis-examples:7f42eb3388cca4b0",
      "rule_type": "DEFINITION",
      "shard": "adam-common-statistical-analysis-examples.json",
      "source_section_classification": "DEFINITION",
      "standard_id": "adam-common-statistical-analysis-examples"
    },
    {
      "citation_status": "RESOLVED",
      "decision": "REMOVE_NON_RELEVANT",
      "normalized_atomic_requirement": "There is more than one value of REGIONy for a given value of REGIONyN, considering only those rows on which both variables are populated",
      "reason": "semantic_duplicate_requirement",
      "rule_id": "adam-conformance-rules:sheet-Rules Catalogue_row-1002",
      "rule_type": "CONFORMANCE_RULE",
      "shard": "adam-conformance-rules.json",
      "source_section_classification": "OPERATIVE_RULE",
      "standard_id": "adam-conformance-rules"
    },
    {
      "citation_status": "RESOLVED",
      "decision": "REMOVE_NON_RELEVANT",
      "normalized_atomic_requirement": "There is more than one value of REGIONy for a given value of REGIONyN, considering only those rows on which both variables are populated",
      "reason": "semantic_duplicate_requirement",
      "rule_id": "adam-conformance-rules:sheet-Rules Catalogue_row-1003",
      "rule_type": "CONFORMANCE_RULE",
      "shard": "adam-conformance-rules.json",
      "source_section_classification": "OPERATIVE_RULE",
      "standard_id": "adam-conformance-rules"
    },
    {
      "citation_status": "RESOLVED",
      "decision": "REMOVE_NON_RELEVANT",
      "normalized_atomic_requirement": "There is more than one value of REGIONyN for a given value of REGIONy, considering only those rows on which both variables are populated",
      "reason": "semantic_duplicate_requirement",
      "rule_id": "adam-conformance-rules:sheet-Rules Catalogue_row-1005",
      "rule_type": "CONFORMANCE_RULE",
      "shard": "adam-conformance-rules.json",
      "source_section_classification": "OPERATIVE_RULE",
      "standard_id": "adam-conformance-rules"
    },
    {
      "citation_status": "RESOLVED",
      "decision": "REMOVE_NON_RELEVANT",
      "normalized_atomic_requirement": "There is more than one value of REGIONyN for a given value of REGIONy, considering only those rows on which both variables are populated",
      "reason": "semantic_duplicate_requirement",
      "rule_id": "adam-conformance-rules:sheet-Rules Catalogue_row-1006",
      "rule_type": "CONFORMANCE_RULE",
      "shard": "adam-conformance-rules.json",
      "source_section_classification": "OPERATIVE_RULE",
      "standard_id": "adam-conformance-rules"
    },
    {
      "citation_status": "RESOLVED",
      "decision": "REMOVE_NON_RELEVANT",
      "normalized_atomic_requirement": "There is more than one value of DTHCAUS for a given value of DTHCAUSN, considering only those rows on which both variables are populated",
      "reason": "semantic_duplicate_requirement",
      "rule_id": "adam-conformance-rules:sheet-Rules Catalogue_row-1008",
      "rule_type": "CONFORMANCE_RULE",
      "shard": "adam-conformance-rules.json",
      "source_section_classification": "OPERATIVE_RULE",
      "standard_id": "adam-conformance-rules"
    },
    {
      "citation_status": "RESOLVED",
      "decision": "REMOVE_NON_RELEVANT",
      "normalized_atomic_requirement": "There is more than one value of DTHCAUS for a given value of DTHCAUSN, considering only those rows on which both variables are populated",
      "reason": "semantic_duplicate_requirement",
      "rule_id": "adam-conformance-rules:sheet-Rules Catalogue_row-1009",
      "rule_type": "CONFORMANCE_RULE",
      "shard": "adam-conformance-rules.json",
      "source_section_classification": "OPERATIVE_RULE",
      "standard_id": "adam-conformance-rules"
    },
    {
      "citation_status": "RESOLVED",
      "decision": "REMOVE_NON_RELEVANT",
      "normalized_atomic_requirement": "PPROTFN is present and has a value that is not 1 or 0",
      "reason": "semantic_duplicate_requirement",
      "rule_id": "adam-conformance-rules:sheet-Rules Catalogue_row-101",
      "rule_type": "CONFORMANCE_RULE",
      "shard": "adam-conformance-rules.json",
      "source_section_classification": "OPERATIVE_RULE",
      "standard_id": "adam-conformance-rules"
    },
    {
      "citation_status": "RESOLVED",
      "decision": "REMOVE_NON_RELEVANT",
      "normalized_atomic_requirement": "There is more than one value of DTHCAUSN for a given value of DTHCAUS, considering only those rows on which both variables are populated",
      "reason": "semantic_duplicate_requirement",
      "rule_id": "adam-conformance-rules:sheet-Rules Catalogue_row-1011",
      "rule_type": "CONFORMANCE_RULE",
      "shard": "adam-conformance-rules.json",
      "source_section_classification": "OPERATIVE_RULE",
      "standard_id": "adam-conformance-rules"
    },
    {
      "citation_status": "RESOLVED",
      "decision": "REMOVE_NON_RELEVANT",
      "normalized_atomic_requirement": "There is more than one value of DTHCAUSN for a given value of DTHCAUS, considering only those rows on which both variables are populated",
      "reason": "semantic_duplicate_requirement",
      "rule_id": "adam-conformance-rules:sheet-Rules Catalogue_row-1012",
      "rule_type": "CONFORMANCE_RULE",
      "shard": "adam-conformance-rules.json",
      "source_section_classification": "OPERATIVE_RULE",
      "standard_id": "adam-conformance-rules"
    },
    {
      "citation_status": "RESOLVED",
      "decision": "REMOVE_NON_RELEVANT",
      "normalized_atomic_requirement": "The value of ASTDT is greater than the value of AENDT, considering only those rows on which both variables are populated",
      "reason": "semantic_duplicate_requirement",
      "rule_id": "adam-conformance-rules:sheet-Rules Catalogue_row-1014",
      "rule_type": "CONFORMANCE_RULE",
      "shard": "adam-conformance-rules.json",
      "source_section_classification": "OPERATIVE_RULE",
      "standard_id": "adam-conformance-rules"
    },
    {
      "citation_status": "RESOLVED",
      "decision": "REMOVE_NON_RELEVANT",
      "normalized_atomic_requirement": "The value of ASTDT is greater than the value of AENDT, considering only those rows on which both variables are populated",
      "reason": "semantic_duplicate_requirement",
      "rule_id": "adam-conformance-rules:sheet-Rules Catalogue_row-1015",
      "rule_type": "CONFORMANCE_RULE",
      "shard": "adam-conformance-rules.json",
      "source_section_classification": "OPERATIVE_RULE",
      "standard_id": "adam-conformance-rules"
    },
    {
      "citation_status": "RESOLVED",
      "decision": "REMOVE_NON_RELEVANT",
      "normalized_atomic_requirement": "The value of ASTDT is greater than the value of AENDT, considering only those rows on which both variables are populated",
      "reason": "semantic_duplicate_requirement",
      "rule_id": "adam-conformance-rules:sheet-Rules Catalogue_row-1016",
      "rule_type": "CONFORMANCE_RULE",
      "shard": "adam-conformance-rules.json",
      "source_section_classification": "OPERATIVE_RULE",
      "standard_id": "adam-conformance-rules"
    },
    {
      "citation_status": "RESOLVED",
      "decision": "REMOVE_NON_RELEVANT",
      "normalized_atomic_requirement": "The value of ASTDTM is greater than the value of AENDTM, considering only those rows on which both variables are populated",
      "reason": "semantic_duplicate_requirement",
      "rule_id": "adam-conformance-rules:sheet-Rules Catalogue_row-1018",
      "rule_type": "CONFORMANCE_RULE",
      "shard": "adam-conformance-rules.json",
      "source_section_classification": "OPERATIVE_RULE",
      "standard_id": "adam-conformance-rules"
    },
    {
      "citation_status": "RESOLVED",
      "decision": "REMOVE_NON_RELEVANT",
      "normalized_atomic_requirement": "The value of ASTDTM is greater than the value of AENDTM, considering only those rows on which both variables are populated",
      "reason": "semantic_duplicate_requirement",
      "rule_id": "adam-conformance-rules:sheet-Rules Catalogue_row-1019",
      "rule_type": "CONFORMANCE_RULE",
      "shard": "adam-conformance-rules.json",
      "source_section_classification": "OPERATIVE_RULE",
      "standard_id": "adam-conformance-rules"
    },
    {
      "citation_status": "RESOLVED",
      "decision": "REMOVE_NON_RELEVANT",
      "normalized_atomic_requirement": "PPROTFN is present and has a value that is not 1 or 0",
      "reason": "semantic_duplicate_requirement",
      "rule_id": "adam-conformance-rules:sheet-Rules Catalogue_row-102",
      "rule_type": "CONFORMANCE_RULE",
      "shard": "adam-conformance-rules.json",
      "source_section_classification": "OPERATIVE_RULE",
      "standard_id": "adam-conformance-rules"
    },
    {
      "citation_status": "RESOLVED",
      "decision": "REMOVE_NON_RELEVANT",
      "normalized_atomic_requirement": "The value of ASTDTM is greater than the value of AENDTM, considering only those rows on which both variables are populated",
      "reason": "semantic_duplicate_requirement",
      "rule_id": "adam-conformance-rules:sheet-Rules Catalogue_row-1020",
      "rule_type": "CONFORMANCE_RULE",
      "shard": "adam-conformance-rules.json",
      "source_section_classification": "OPERATIVE_RULE",
      "standard_id": "adam-conformance-rules"
    },
    {
      "citation_status": "RESOLVED",
      "decision": "REMOVE_NON_RELEVANT",
      "normalized_atomic_requirement": "ONTRTFL is not equal to Y or null",
      "reason": "semantic_duplicate_requirement",
      "rule_id": "adam-conformance-rules:sheet-Rules Catalogue_row-1022",
      "rule_type": "CONFORMANCE_RULE",
      "shard": "adam-conformance-rules.json",
      "source_section_classification": "OPERATIVE_RULE",
      "standard_id": "adam-conformance-rules"
    },
    {
      "citation_status": "RESOLVED",
      "decision": "REMOVE_NON_RELEVANT",
      "normalized_atomic_requirement": "DOSEON or DOSCUMA is present and DOSEU is not present",
      "reason": "semantic_duplicate_requirement",
      "rule_id": "adam-conformance-rules:sheet-Rules Catalogue_row-1024",
      "rule_type": "CONFORMANCE_RULE",
      "shard": "adam-conformance-rules.json",
      "source_section_classification": "OPERATIVE_RULE",
      "standard_id": "adam-conformance-rules"
    },
    {
      "citation_status": "RESOLVED",
      "decision": "REMOVE_NON_RELEVANT",
      "normalized_atomic_requirement": "SDTM.EX is present and neither TRTEDT or TRTEDTM are present",
      "reason": "semantic_duplicate_requirement",
      "rule_id": "adam-conformance-rules:sheet-Rules Catalogue_row-1027",
      "rule_type": "CONFORMANCE_RULE",
      "shard": "adam-conformance-rules.json",
      "source_section_classification": "OPERATIVE_RULE",
      "standard_id": "adam-conformance-rules"
    },
    {
      "citation_status": "RESOLVED",
      "decision": "REMOVE_NON_RELEVANT",
      "normalized_atomic_requirement": "SDTM.EX is present and neither TRTEDT or TRTEDTM are present",
      "reason": "semantic_duplicate_requirement",
      "rule_id": "adam-conformance-rules:sheet-Rules Catalogue_row-1028",
      "rule_type": "CONFORMANCE_RULE",
      "shard": "adam-conformance-rules.json",
      "source_section_classification": "OPERATIVE_RULE",
      "standard_id": "adam-conformance-rules"
    },
    {
      "citation_status": "RESOLVED",
      "decision": "REMOVE_NON_RELEVANT",
      "normalized_atomic_requirement": "SDTM.EX is present and neither TRTEDT or TRTEDTM are present",
      "reason": "semantic_duplicate_requirement",
      "rule_id": "adam-conformance-rules:sheet-Rules Catalogue_row-1029",
      "rule_type": "CONFORMANCE_RULE",
      "shard": "adam-conformance-rules.json",
      "source_section_classification": "OPERATIVE_RULE",
      "standard_id": "adam-conformance-rules"
    },
    {
      "citation_status": "RESOLVED",
      "decision": "REMOVE_NON_RELEVANT",
      "normalized_atomic_requirement": "RANDDT is not present when RANDFL is equal to Y for at least one record",
      "reason": "semantic_duplicate_requirement",
      "rule_id": "adam-conformance-rules:sheet-Rules Catalogue_row-1031",
      "rule_type": "CONFORMANCE_RULE",
      "shard": "adam-conformance-rules.json",
      "source_section_classification": "OPERATIVE_RULE",
      "standard_id": "adam-conformance-rules"
    },
    {
      "citation_status": "RESOLVED",
      "decision": "REMOVE_NON_RELEVANT",
      "normalized_atomic_requirement": "RANDDT is not present when RANDFL is equal to Y for at least one record",
      "reason": "semantic_duplicate_requirement",
      "rule_id": "adam-conformance-rules:sheet-Rules Catalogue_row-1032",
      "rule_type": "CONFORMANCE_RULE",
      "shard": "adam-conformance-rules.json",
      "source_section_classification": "OPERATIVE_RULE",
      "standard_id": "adam-conformance-rules"
    },
    {
      "citation_status": "RESOLVED",
      "decision": "REMOVE_NON_RELEVANT",
      "normalized_atomic_requirement": "RANDDT is not present when RANDFL is equal to Y for at least one record",
      "reason": "semantic_duplicate_requirement",
      "rule_id": "adam-conformance-rules:sheet-Rules Catalogue_row-1033",
      "rule_type": "CONFORMANCE_RULE",
      "shard": "adam-conformance-rules.json",
      "source_section_classification": "OPERATIVE_RULE",
      "standard_id": "adam-conformance-rules"
    },
    {
      "citation_status": "RESOLVED",
      "decision": "REMOVE_NON_RELEVANT",
      "normalized_atomic_requirement": "The value of ADSL.USUBJID is equal to the value of DM.USUBJID and ADSL.ACTARM is not equal to DM.ACTARM",
      "reason": "semantic_duplicate_requirement",
      "rule_id": "adam-conformance-rules:sheet-Rules Catalogue_row-1035",
      "rule_type": "CONFORMANCE_RULE",
      "shard": "adam-conformance-rules.json",
      "source_section_classification": "OPERATIVE_RULE",
      "standard_id": "adam-conformance-rules"
    },
    {
      "citation_status": "RESOLVED",
      "decision": "REMOVE_NON_RELEVANT",
      "normalized_atomic_requirement": "The value of ADSL.USUBJID is equal to the value of DM.USUBJID and ADSL.ACTARM is not equal to DM.ACTARM",
      "reason": "semantic_duplicate_requirement",
      "rule_id": "adam-conformance-rules:sheet-Rules Catalogue_row-1036",
      "rule_type": "CONFORMANCE_RULE",
      "shard": "adam-conformance-rules.json",
      "source_section_classification": "OPERATIVE_RULE",
      "standard_id": "adam-conformance-rules"
    },
    {
      "citation_status": "RESOLVED",
      "decision": "REMOVE_NON_RELEVANT",
      "normalized_atomic_requirement": "TRxxAGy is not present and both TRxxPGy and TRTxxA are present",
      "reason": "semantic_duplicate_requirement",
      "rule_id": "adam-conformance-rules:sheet-Rules Catalogue_row-1038",
      "rule_type": "CONFORMANCE_RULE",
      "shard": "adam-conformance-rules.json",
      "source_section_classification": "OPERATIVE_RULE",
      "standard_id": "adam-conformance-rules"
    },
    {
      "citation_status": "RESOLVED",
      "decision": "REMOVE_NON_RELEVANT",
      "normalized_atomic_requirement": "TRxxAGy is not present and both TRxxPGy and TRTxxA are present",
      "reason": "semantic_duplicate_requirement",
      "rule_id": "adam-conformance-rules:sheet-Rules Catalogue_row-1039",
      "rule_type": "CONFORMANCE_RULE",
      "shard": "adam-conformance-rules.json",
      "source_section_classification": "OPERATIVE_RULE",
      "standard_id": "adam-conformance-rules"
    },
    {
      "citation_status": "RESOLVED",
      "decision": "REMOVE_NON_RELEVANT",
      "normalized_atomic_requirement": "SAFFN is present and has a value that is not 1 or 0",
      "reason": "semantic_duplicate_requirement",
      "rule_id": "adam-conformance-rules:sheet-Rules Catalogue_row-104",
      "rule_type": "CONFORMANCE_RULE",
      "shard": "adam-conformance-rules.json",
      "source_section_classification": "OPERATIVE_RULE",
      "standard_id": "adam-conformance-rules"
    },
    {
      "citation_status": "RESOLVED",
      "decision": "REMOVE_NON_RELEVANT",
      "normalized_atomic_requirement": "TRxxAGy is not present and both TRxxPGy and TRTxxA are present",
      "reason": "semantic_duplicate_requirement",
      "rule_id": "adam-conformance-rules:sheet-Rules Catalogue_row-1040",
      "rule_type": "CONFORMANCE_RULE",
      "shard": "adam-conformance-rules.json",
      "source_section_classification": "OPERATIVE_RULE",
      "standard_id": "adam-conformance-rules"
    },
    {
      "citation_status": "RESOLVED",
      "decision": "REMOVE_NON_RELEVANT",
      "normalized_atomic_requirement": "*DTF is populated and neither *DT nor *DTM is populated",
      "reason": "semantic_duplicate_requirement",
      "rule_id": "adam-conformance-rules:sheet-Rules Catalogue_row-1042",
      "rule_type": "CONFORMANCE_RULE",
      "shard": "adam-conformance-rules.json",
      "source_section_classification": "OPERATIVE_RULE",
      "standard_id": "adam-conformance-rules"
    },
    {
      "citation_status": "RESOLVED",
      "decision": "REMOVE_NON_RELEVANT",
      "normalized_atomic_requirement": "*DTF is populated and neither *DT nor *DTM is populated",
      "reason": "semantic_duplicate_requirement",
      "rule_id": "adam-conformance-rules:sheet-Rules Catalogue_row-1043",
      "rule_type": "CONFORMANCE_RULE",
      "shard": "adam-conformance-rules.json",
      "source_section_classification": "OPERATIVE_RULE",
      "standard_id": "adam-conformance-rules"
    },
    {
      "citation_status": "RESOLVED",
      "decision": "REMOVE_NON_RELEVANT",
      "normalized_atomic_requirement": "*TMF is populated and neither *TM nor *DTM is populated",
      "reason": "semantic_duplicate_requirement",
      "rule_id": "adam-conformance-rules:sheet-Rules Catalogue_row-1046",
      "rule_type": "CONFORMANCE_RULE",
      "shard": "adam-conformance-rules.json",
      "source_section_classification": "OPERATIVE_RULE",
      "standard_id": "adam-conformance-rules"
    },
    {
      "citation_status": "RESOLVED",
      "decision": "REMOVE_NON_RELEVANT",
      "normalized_atomic_requirement": "*TMF is populated and neither *TM nor *DTM is populated",
      "reason": "semantic_duplicate_requirement",
      "rule_id": "adam-conformance-rules:sheet-Rules Catalogue_row-1047",
      "rule_type": "CONFORMANCE_RULE",
      "shard": "adam-conformance-rules.json",
      "source_section_classification": "OPERATIVE_RULE",
      "standard_id": "adam-conformance-rules"
    },
    {
      "citation_status": "RESOLVED",
      "decision": "REMOVE_NON_RELEVANT",
      "normalized_atomic_requirement": "SAFFN is present and has a value that is not 1 or 0",
      "reason": "semantic_duplicate_requirement",
      "rule_id": "adam-conformance-rules:sheet-Rules Catalogue_row-105",
      "rule_type": "CONFORMANCE_RULE",
      "shard": "adam-conformance-rules.json",
      "source_section_classification": "OPERATIVE_RULE",
      "standard_id": "adam-conformance-rules"
    },
    {
      "citation_status": "RESOLVED",
      "decision": "REMOVE_NON_RELEVANT",
      "normalized_atomic_requirement": "CNSR is not present",
      "reason": "semantic_duplicate_requirement",
      "rule_id": "adam-conformance-rules:sheet-Rules Catalogue_row-1050",
      "rule_type": "CONFORMANCE_RULE",
      "shard": "adam-conformance-rules.json",
      "source_section_classification": "OPERATIVE_RULE",
      "standard_id": "adam-conformance-rules"
    },
    {
      "citation_status": "RESOLVED",
      "decision": "REMOVE_NON_RELEVANT",
      "normalized_atomic_requirement": "CNSR is not present",
      "reason": "semantic_duplicate_requirement",
      "rule_id": "adam-conformance-rules:sheet-Rules Catalogue_row-1051",
      "rule_type": "CONFORMANCE_RULE",
      "shard": "adam-conformance-rules.json",
      "source_section_classification": "OPERATIVE_RULE",
      "standard_id": "adam-conformance-rules"
    },
    {
      "citation_status": "RESOLVED",
      "decision": "REMOVE_NON_RELEVANT",
      "normalized_atomic_requirement": "CNSR is not present",
      "reason": "semantic_duplicate_requirement",
      "rule_id": "adam-conformance-rules:sheet-Rules Catalogue_row-1052",
      "rule_type": "CONFORMANCE_RULE",
      "shard": "adam-conformance-rules.json",
      "source_section_classification": "OPERATIVE_RULE",
      "standard_id": "adam-conformance-rules"
    },
    {
      "citation_status": "RESOLVED",
      "decision": "REMOVE_NON_RELEVANT",
      "normalized_atomic_requirement": "AVAL is not present",
      "reason": "semantic_duplicate_requirement",
      "rule_id": "adam-conformance-rules:sheet-Rules Catalogue_row-1054",
      "rule_type": "CONFORMANCE_RULE",
      "shard": "adam-conformance-rules.json",
      "source_section_classification": "OPERATIVE_RULE",
      "standard_id": "adam-conformance-rules"
    },
    {
      "citation_status": "RESOLVED",
      "decision": "REMOVE_NON_RELEVANT",
      "normalized_atomic_requirement": "AVAL is not present",
      "reason": "semantic_duplicate_requirement",
      "rule_id": "adam-conformance-rules:sheet-Rules Catalogue_row-1055",
      "rule_type": "CONFORMANCE_RULE",
      "shard": "adam-conformance-rules.json",
      "source_section_classification": "OPERATIVE_RULE",
      "standard_id": "adam-conformance-rules"
    },
    {
      "citation_status": "RESOLVED",
      "decision": "REMOVE_NON_RELEVANT",
      "normalized_atomic_requirement": "AVAL is not present",
      "reason": "semantic_duplicate_requirement",
      "rule_id": "adam-conformance-rules:sheet-Rules Catalogue_row-1056",
      "rule_type": "CONFORMANCE_RULE",
      "shard": "adam-conformance-rules.json",
      "source_section_classification": "OPERATIVE_RULE",
      "standard_id": "adam-conformance-rules"
    },
    {
      "citation_status": "RESOLVED",
      "decision": "REMOVE_NON_RELEVANT",
      "normalized_atomic_requirement": "On a given record, a variable which has a suffix of GRyN is populated and a variable with the same root name and suffix of GRy is not populated",
      "reason": "semantic_duplicate_requirement",
      "rule_id": "adam-conformance-rules:sheet-Rules Catalogue_row-1058",
      "rule_type": "CONFORMANCE_RULE",
      "shard": "adam-conformance-rules.json",
      "source_section_classification": "OPERATIVE_RULE",
      "standard_id": "adam-conformance-rules"
    },
    {
      "citation_status": "RESOLVED",
      "decision": "REMOVE_NON_RELEVANT",
      "normalized_atomic_requirement": "SAFFN is present and has a value that is not 1 or 0",
      "reason": "semantic_duplicate_requirement",
      "rule_id": "adam-conformance-rules:sheet-Rules Catalogue_row-106",
      "rule_type": "CONFORMANCE_RULE",
      "shard": "adam-conformance-rules.json",
      "source_section_classification": "OPERATIVE_RULE",
      "standard_id": "adam-conformance-rules"
    },
    {
      "citation_status": "RESOLVED",
      "decision": "REMOVE_NON_RELEVANT",
      "normalized_atomic_requirement": "On a given record, a variable which has a suffix of GRy is populated and a variable with the same root name and suffix of GRyN is not populated",
      "reason": "semantic_duplicate_requirement",
      "rule_id": "adam-conformance-rules:sheet-Rules Catalogue_row-1060",
      "rule_type": "CONFORMANCE_RULE",
      "shard": "adam-conformance-rules.json",
      "source_section_classification": "OPERATIVE_RULE",
      "standard_id": "adam-conformance-rules"
    },
    {
      "citation_status": "RESOLVED",
      "decision": "REMOVE_NON_RELEVANT",
      "normalized_atomic_requirement": "On a given record, TRTxxP is populated and TRTxxPN is not populated",
      "reason": "semantic_duplicate_requirement",
      "rule_id": "adam-conformance-rules:sheet-Rules Catalogue_row-1062",
      "rule_type": "CONFORMANCE_RULE",
      "shard": "adam-conformance-rules.json",
      "source_section_classification": "OPERATIVE_RULE",
      "standard_id": "adam-conformance-rules"
    },
    {
      "citation_status": "RESOLVED",
      "decision": "REMOVE_NON_RELEVANT",
      "normalized_atomic_requirement": "On a given record, TRTxxPN is populated and TRTxxP is not populated",
      "reason": "semantic_duplicate_requirement",
      "rule_id": "adam-conformance-rules:sheet-Rules Catalogue_row-1064",
      "rule_type": "CONFORMANCE_RULE",
      "shard": "adam-conformance-rules.json",
      "source_section_classification": "OPERATIVE_RULE",
      "standard_id": "adam-conformance-rules"
    },
    {
      "citation_status": "RESOLVED",
      "decision": "REMOVE_NON_RELEVANT",
      "normalized_atomic_requirement": "RANDFN is present and has a value that is not 1 or 0",
      "reason": "semantic_duplicate_requirement",
      "rule_id": "adam-conformance-rules:sheet-Rules Catalogue_row-108",
      "rule_type": "CONFORMANCE_RULE",
      "shard": "adam-conformance-rules.json",
      "source_section_classification": "OPERATIVE_RULE",
      "standard_id": "adam-conformance-rules"
    },
    {
      "citation_status": "RESOLVED",
      "decision": "REMOVE_NON_RELEVANT",
      "normalized_atomic_requirement": "RANDFN is present and has a value that is not 1 or 0",
      "reason": "semantic_duplicate_requirement",
      "rule_id": "adam-conformance-rules:sheet-Rules Catalogue_row-109",
      "rule_type": "CONFORMANCE_RULE",
      "shard": "adam-conformance-rules.json",
      "source_section_classification": "OPERATIVE_RULE",
      "standard_id": "adam-conformance-rules"
    },
    {
      "citation_status": "RESOLVED",
      "decision": "REMOVE_NON_RELEVANT",
      "normalized_atomic_requirement": "RANDFN is present and has a value that is not 1 or 0",
      "reason": "semantic_duplicate_requirement",
      "rule_id": "adam-conformance-rules:sheet-Rules Catalogue_row-110",
      "rule_type": "CONFORMANCE_RULE",
      "shard": "adam-conformance-rules.json",
      "source_section_classification": "OPERATIVE_RULE",
      "standard_id": "adam-conformance-rules"
    },
    {
      "citation_status": "RESOLVED",
      "decision": "REMOVE_NON_RELEVANT",
      "normalized_atomic_requirement": "Within a subject, there is more than one value of ATOXDSCL for a given value of PARAM, considering only those rows on which both variables are populated",
      "reason": "semantic_duplicate_requirement",
      "rule_id": "adam-conformance-rules:sheet-Rules Catalogue_row-1114",
      "rule_type": "CONFORMANCE_RULE",
      "shard": "adam-conformance-rules.json",
      "source_section_classification": "OPERATIVE_RULE",
      "standard_id": "adam-conformance-rules"
    },
    {
      "citation_status": "RESOLVED",
      "decision": "REMOVE_NON_RELEVANT",
      "normalized_atomic_requirement": "Within a subject, there is more than one value of ATOXDSCH for a given value of PARAM, considering only those rows on which both variables are populated",
      "reason": "semantic_duplicate_requirement",
      "rule_id": "adam-conformance-rules:sheet-Rules Catalogue_row-1116",
      "rule_type": "CONFORMANCE_RULE",
      "shard": "adam-conformance-rules.json",
      "source_section_classification": "OPERATIVE_RULE",
      "standard_id": "adam-conformance-rules"
    },
    {
      "citation_status": "RESOLVED",
      "decision": "REMOVE_NON_RELEVANT",
      "normalized_atomic_requirement": "ENRLFN is present and has a value that is not 1 or 0",
      "reason": "semantic_duplicate_requirement",
      "rule_id": "adam-conformance-rules:sheet-Rules Catalogue_row-112",
      "rule_type": "CONFORMANCE_RULE",
      "shard": "adam-conformance-rules.json",
      "source_section_classification": "OPERATIVE_RULE",
      "standard_id": "adam-conformance-rules"
    },
    {
      "citation_status": "RESOLVED",
      "decision": "REMOVE_NON_RELEVANT",
      "normalized_atomic_requirement": "ENRLFN is present and has a value that is not 1 or 0",
      "reason": "semantic_duplicate_requirement",
      "rule_id": "adam-conformance-rules:sheet-Rules Catalogue_row-113",
      "rule_type": "CONFORMANCE_RULE",
      "shard": "adam-conformance-rules.json",
      "source_section_classification": "OPERATIVE_RULE",
      "standard_id": "adam-conformance-rules"
    },
    {
      "citation_status": "RESOLVED",
      "decision": "REMOVE_NON_RELEVANT",
      "normalized_atomic_requirement": "On a given record, TRTSEQPN is populated and TRTSEQP is not populated",
      "reason": "semantic_duplicate_requirement",
      "rule_id": "adam-conformance-rules:sheet-Rules Catalogue_row-1134",
      "rule_type": "CONFORMANCE_RULE",
      "shard": "adam-conformance-rules.json",
      "source_section_classification": "OPERATIVE_RULE",
      "standard_id": "adam-conformance-rules"
    },
    {
      "citation_status": "RESOLVED",
      "decision": "REMOVE_NON_RELEVANT",
      "normalized_atomic_requirement": "On a given record, TRTSEQP is populated and TRTSEQPN is not populated",
      "reason": "semantic_duplicate_requirement",
      "rule_id": "adam-conformance-rules:sheet-Rules Catalogue_row-1136",
      "rule_type": "CONFORMANCE_RULE",
      "shard": "adam-conformance-rules.json",
      "source_section_classification": "OPERATIVE_RULE",
      "standard_id": "adam-conformance-rules"
    },
    {
      "citation_status": "RESOLVED",
      "decision": "REMOVE_NON_RELEVANT",
      "normalized_atomic_requirement": "On a given record, TRTSEQAN is populated and TRTSEQA is not populated",
      "reason": "semantic_duplicate_requirement",
      "rule_id": "adam-conformance-rules:sheet-Rules Catalogue_row-1138",
      "rule_type": "CONFORMANCE_RULE",
      "shard": "adam-conformance-rules.json",
      "source_section_classification": "OPERATIVE_RULE",
      "standard_id": "adam-conformance-rules"
    },
    {
      "citation_status": "RESOLVED",
      "decision": "REMOVE_NON_RELEVANT",
      "normalized_atomic_requirement": "ENRLFN is present and has a value that is not 1 or 0",
      "reason": "semantic_duplicate_requirement",
      "rule_id": "adam-conformance-rules:sheet-Rules Catalogue_row-114",
      "rule_type": "CONFORMANCE_RULE",
      "shard": "adam-conformance-rules.json",
      "source_section_classification": "OPERATIVE_RULE",
      "standard_id": "adam-conformance-rules"
    },
    {
      "citation_status": "RESOLVED",
      "decision": "REMOVE_NON_RELEVANT",
      "normalized_atomic_requirement": "On a given record, TRTSEQA is populated and TRTSEQAN is not populated",
      "reason": "semantic_duplicate_requirement",
      "rule_id": "adam-conformance-rules:sheet-Rules Catalogue_row-1140",
      "rule_type": "CONFORMANCE_RULE",
      "shard": "adam-conformance-rules.json",
      "source_section_classification": "OPERATIVE_RULE",
      "standard_id": "adam-conformance-rules"
    },
    {
      "citation_status": "RESOLVED",
      "decision": "REMOVE_NON_RELEVANT",
      "normalized_atomic_requirement": "On a given record, TRxxPGyN is populated and TRxxPGy is not populated",
      "reason": "semantic_duplicate_requirement",
      "rule_id": "adam-conformance-rules:sheet-Rules Catalogue_row-1142",
      "rule_type": "CONFORMANCE_RULE",
      "shard": "adam-conformance-rules.json",
      "source_section_classification": "OPERATIVE_RULE",
      "standard_id": "adam-conformance-rules"
    },
    {
      "citation_status": "RESOLVED",
      "decision": "REMOVE_NON_RELEVANT",
      "normalized_atomic_requirement": "On a given record, TRxxPGy is populated and TRxxPGyN is not populated",
      "reason": "semantic_duplicate_requirement",
      "rule_id": "adam-conformance-rules:sheet-Rules Catalogue_row-1144",
      "rule_type": "CONFORMANCE_RULE",
      "shard": "adam-conformance-rules.json",
      "source_section_classification": "OPERATIVE_RULE",
      "standard_id": "adam-conformance-rules"
    },
    {
      "citation_status": "RESOLVED",
      "decision": "REMOVE_NON_RELEVANT",
      "normalized_atomic_requirement": "On a given record, TRxxAGyN is populated and TRxxAGy is not populated",
      "reason": "semantic_duplicate_requirement",
      "rule_id": "adam-conformance-rules:sheet-Rules Catalogue_row-1146",
      "rule_type": "CONFORMANCE_RULE",
      "shard": "adam-conformance-rules.json",
      "source_section_classification": "OPERATIVE_RULE",
      "standard_id": "adam-conformance-rules"
    },
    {
      "citation_status": "RESOLVED",
      "decision": "REMOVE_NON_RELEVANT",
      "normalized_atomic_requirement": "On a given record, TRxxAGy is populated and TRxxAGyN is not populated",
      "reason": "semantic_duplicate_requirement",
      "rule_id": "adam-conformance-rules:sheet-Rules Catalogue_row-1148",
      "rule_type": "CONFORMANCE_RULE",
      "shard": "adam-conformance-rules.json",
      "source_section_classification": "OPERATIVE_RULE",
      "standard_id": "adam-conformance-rules"
    },
    {
      "citation_status": "RESOLVED",
      "decision": "REMOVE_NON_RELEVANT",
      "normalized_atomic_requirement": "On a given record, TRTxxA is populated and TRTxxAN is not populated",
      "reason": "semantic_duplicate_requirement",
      "rule_id": "adam-conformance-rules:sheet-Rules Catalogue_row-1158",
      "rule_type": "CONFORMANCE_RULE",
      "shard": "adam-conformance-rules.json",
      "source_section_classification": "OPERATIVE_RULE",
      "standard_id": "adam-conformance-rules"
    },
    {
      "citation_status": "RESOLVED",
      "decision": "REMOVE_NON_RELEVANT",
      "normalized_atomic_requirement": "A variable with a suffix of RFL has a value that is not Y or null",
      "reason": "semantic_duplicate_requirement",
      "rule_id": "adam-conformance-rules:sheet-Rules Catalogue_row-116",
      "rule_type": "CONFORMANCE_RULE",
      "shard": "adam-conformance-rules.json",
      "source_section_classification": "OPERATIVE_RULE",
      "standard_id": "adam-conformance-rules"
    },
    {
      "citation_status": "RESOLVED",
      "decision": "REMOVE_NON_RELEVANT",
      "normalized_atomic_requirement": "On a given record, TRTxxAN is populated and TRTxxA is not populated",
      "reason": "semantic_duplicate_requirement",
      "rule_id": "adam-conformance-rules:sheet-Rules Catalogue_row-1160",
      "rule_type": "CONFORMANCE_RULE",
      "shard": "adam-conformance-rules.json",
      "source_section_classification": "OPERATIVE_RULE",
      "standard_id": "adam-conformance-rules"
    },
    {
      "citation_status": "RESOLVED",
      "decision": "REMOVE_NON_RELEVANT",
      "normalized_atomic_requirement": "A variable with a suffix of FL has a value that is not Y, N or null",
      "reason": "semantic_duplicate_requirement",
      "rule_id": "adam-conformance-rules:sheet-Rules Catalogue_row-12",
      "rule_type": "CONFORMANCE_RULE",
      "shard": "adam-conformance-rules.json",
      "source_section_classification": "OPERATIVE_RULE",
      "standard_id": "adam-conformance-rules"
    },
    {
      "citation_status": "RESOLVED",
      "decision": "REMOVE_NON_RELEVANT",
      "normalized_atomic_requirement": "A variable with a suffix of PFL has a value that is not Y or null",
      "reason": "semantic_duplicate_requirement",
      "rule_id": "adam-conformance-rules:sheet-Rules Catalogue_row-120",
      "rule_type": "CONFORMANCE_RULE",
      "shard": "adam-conformance-rules.json",
      "source_section_classification": "OPERATIVE_RULE",
      "standard_id": "adam-conformance-rules"
    },
    {
      "citation_status": "RESOLVED",
      "decision": "REMOVE_NON_RELEVANT",
      "normalized_atomic_requirement": "On a given record, DTHCAUS is populated and DTHCAUSN is not populated",
      "reason": "semantic_duplicate_requirement",
      "rule_id": "adam-conformance-rules:sheet-Rules Catalogue_row-1200",
      "rule_type": "CONFORMANCE_RULE",
      "shard": "adam-conformance-rules.json",
      "source_section_classification": "OPERATIVE_RULE",
      "standard_id": "adam-conformance-rules"
    },
    {
      "citation_status": "RESOLVED",
      "decision": "REMOVE_NON_RELEVANT",
      "normalized_atomic_requirement": "On a given record, DTHCAUSN is populated and DTHCAUS is not populated",
      "reason": "semantic_duplicate_requirement",
      "rule_id": "adam-conformance-rules:sheet-Rules Catalogue_row-1202",
      "rule_type": "CONFORMANCE_RULE",
      "shard": "adam-conformance-rules.json",
      "source_section_classification": "OPERATIVE_RULE",
      "standard_id": "adam-conformance-rules"
    },
    {
      "citation_status": "RESOLVED",
      "decision": "REMOVE_NON_RELEVANT",
      "normalized_atomic_requirement": "On a given record, REGIONy is populated and REGIONyN is not populated",
      "reason": "semantic_duplicate_requirement",
      "rule_id": "adam-conformance-rules:sheet-Rules Catalogue_row-1208",
      "rule_type": "CONFORMANCE_RULE",
      "shard": "adam-conformance-rules.json",
      "source_section_classification": "OPERATIVE_RULE",
      "standard_id": "adam-conformance-rules"
    },
    {
      "citation_status": "RESOLVED",
      "decision": "REMOVE_NON_RELEVANT",
      "normalized_atomic_requirement": "On a given record, REGIONyN is populated and REGIONy is not populated",
      "reason": "semantic_duplicate_requirement",
      "rule_id": "adam-conformance-rules:sheet-Rules Catalogue_row-1210",
      "rule_type": "CONFORMANCE_RULE",
      "shard": "adam-conformance-rules.json",
      "source_section_classification": "OPERATIVE_RULE",
      "standard_id": "adam-conformance-rules"
    },
    {
      "citation_status": "RESOLVED",
      "decision": "REMOVE_NON_RELEVANT",
      "normalized_atomic_requirement": "On a given record, TRCMPGy is populated and TRCMPGyN is not populated",
      "reason": "semantic_duplicate_requirement",
      "rule_id": "adam-conformance-rules:sheet-Rules Catalogue_row-1232",
      "rule_type": "CONFORMANCE_RULE",
      "shard": "adam-conformance-rules.json",
      "source_section_classification": "OPERATIVE_RULE",
      "standard_id": "adam-conformance-rules"
    },
    {
      "citation_status": "RESOLVED",
      "decision": "REMOVE_NON_RELEVANT",
      "normalized_atomic_requirement": "On a given record, TRCMPGyN is populated and TRCMPGy is not populated",
      "reason": "semantic_duplicate_requirement",
      "rule_id": "adam-conformance-rules:sheet-Rules Catalogue_row-1234",
      "rule_type": "CONFORMANCE_RULE",
      "shard": "adam-conformance-rules.json",
      "source_section_classification": "OPERATIVE_RULE",
      "standard_id": "adam-conformance-rules"
    },
    {
      "citation_status": "RESOLVED",
      "decision": "REMOVE_NON_RELEVANT",
      "normalized_atomic_requirement": "On a given record, STRATAR is populated and STRATARN is not populated",
      "reason": "semantic_duplicate_requirement",
      "rule_id": "adam-conformance-rules:sheet-Rules Catalogue_row-1236",
      "rule_type": "CONFORMANCE_RULE",
      "shard": "adam-conformance-rules.json",
      "source_section_classification": "OPERATIVE_RULE",
      "standard_id": "adam-conformance-rules"
    },
    {
      "citation_status": "RESOLVED",
      "decision": "REMOVE_NON_RELEVANT",
      "normalized_atomic_requirement": "On a given record, STRATARN is populated and STRATAR is not populated",
      "reason": "semantic_duplicate_requirement",
      "rule_id": "adam-conformance-rules:sheet-Rules Catalogue_row-1238",
      "rule_type": "CONFORMANCE_RULE",
      "shard": "adam-conformance-rules.json",
      "source_section_classification": "OPERATIVE_RULE",
      "standard_id": "adam-conformance-rules"
    },
    {
      "citation_status": "RESOLVED",
      "decision": "REMOVE_NON_RELEVANT",
      "normalized_atomic_requirement": "A variable with a suffix of RFN has a value that is not 1 or null",
      "reason": "semantic_duplicate_requirement",
      "rule_id": "adam-conformance-rules:sheet-Rules Catalogue_row-124",
      "rule_type": "CONFORMANCE_RULE",
      "shard": "adam-conformance-rules.json",
      "source_section_classification": "OPERATIVE_RULE",
      "standard_id": "adam-conformance-rules"
    },
    {
      "citation_status": "RESOLVED",
      "decision": "REMOVE_NON_RELEVANT",
      "normalized_atomic_requirement": "There is more than one value of STRATAR for a given value of STRATARN, considering only those rows on which both variables are populated",
      "reason": "semantic_duplicate_requirement",
      "rule_id": "adam-conformance-rules:sheet-Rules Catalogue_row-1240",
      "rule_type": "CONFORMANCE_RULE",
      "shard": "adam-conformance-rules.json",
      "source_section_classification": "OPERATIVE_RULE",
      "standard_id": "adam-conformance-rules"
    },
    {
      "citation_status": "RESOLVED",
      "decision": "REMOVE_NON_RELEVANT",
      "normalized_atomic_requirement": "There is more than one value of STRATARN for a given value of STRATAR, considering only those rows on which both variables are populated",
      "reason": "semantic_duplicate_requirement",
      "rule_id": "adam-conformance-rules:sheet-Rules Catalogue_row-1242",
      "rule_type": "CONFORMANCE_RULE",
      "shard": "adam-conformance-rules.json",
      "source_section_classification": "OPERATIVE_RULE",
      "standard_id": "adam-conformance-rules"
    },
    {
      "citation_status": "RESOLVED",
      "decision": "REMOVE_NON_RELEVANT",
      "normalized_atomic_requirement": "On a given record, STRATwR is populated and STRATwRN is not populated",
      "reason": "semantic_duplicate_requirement",
      "rule_id": "adam-conformance-rules:sheet-Rules Catalogue_row-1244",
      "rule_type": "CONFORMANCE_RULE",
      "shard": "adam-conformance-rules.json",
      "source_section_classification": "OPERATIVE_RULE",
      "standard_id": "adam-conformance-rules"
    },
    {
      "citation_status": "RESOLVED",
      "decision": "REMOVE_NON_RELEVANT",
      "normalized_atomic_requirement": "On a given record, STRATwRN is populated and STRATwR is not populated",
      "reason": "semantic_duplicate_requirement",
      "rule_id": "adam-conformance-rules:sheet-Rules Catalogue_row-1246",
      "rule_type": "CONFORMANCE_RULE",
      "shard": "adam-conformance-rules.json",
      "source_section_classification": "OPERATIVE_RULE",
      "standard_id": "adam-conformance-rules"
    },
    {
      "citation_status": "RESOLVED",
      "decision": "REMOVE_NON_RELEVANT",
      "normalized_atomic_requirement": "There is more than one value of STRATwR for a given value of STRATwRN, considering only those rows on which both variables are populated",
      "reason": "semantic_duplicate_requirement",
      "rule_id": "adam-conformance-rules:sheet-Rules Catalogue_row-1248",
      "rule_type": "CONFORMANCE_RULE",
      "shard": "adam-conformance-rules.json",
      "source_section_classification": "OPERATIVE_RULE",
      "standard_id": "adam-conformance-rules"
    },
    {
      "citation_status": "RESOLVED",
      "decision": "REMOVE_NON_RELEVANT",
      "normalized_atomic_requirement": "There is more than one value of STRATwRN for a given value of STRATwR, considering only those rows on which both variables are populated",
      "reason": "semantic_duplicate_requirement",
      "rule_id": "adam-conformance-rules:sheet-Rules Catalogue_row-1250",
      "rule_type": "CONFORMANCE_RULE",
      "shard": "adam-conformance-rules.json",
      "source_section_classification": "OPERATIVE_RULE",
      "standard_id": "adam-conformance-rules"
    },
    {
      "citation_status": "RESOLVED",
      "decision": "REMOVE_NON_RELEVANT",
      "normalized_atomic_requirement": "On a given record, STRATAV is populated and STRATAVN is not populated",
      "reason": "semantic_duplicate_requirement",
      "rule_id": "adam-conformance-rules:sheet-Rules Catalogue_row-1252",
      "rule_type": "CONFORMANCE_RULE",
      "shard": "adam-conformance-rules.json",
      "source_section_classification": "OPERATIVE_RULE",
      "standard_id": "adam-conformance-rules"
    },
    {
      "citation_status": "RESOLVED",
      "decision": "REMOVE_NON_RELEVANT",
      "normalized_atomic_requirement": "On a given record, STRATAVN is populated and STRATAV is not populated",
      "reason": "semantic_duplicate_requirement",
      "rule_id": "adam-conformance-rules:sheet-Rules Catalogue_row-1254",
      "rule_type": "CONFORMANCE_RULE",
      "shard": "adam-conformance-rules.json",
      "source_section_classification": "OPERATIVE_RULE",
      "standard_id": "adam-conformance-rules"
    },
    {
      "citation_status": "RESOLVED",
      "decision": "REMOVE_NON_RELEVANT",
      "normalized_atomic_requirement": "There is more than one value of STRATAV for a given value of STRATAVN, considering only those rows on which both variables are populated",
      "reason": "semantic_duplicate_requirement",
      "rule_id": "adam-conformance-rules:sheet-Rules Catalogue_row-1256",
      "rule_type": "CONFORMANCE_RULE",
      "shard": "adam-conformance-rules.json",
      "source_section_classification": "OPERATIVE_RULE",
      "standard_id": "adam-conformance-rules"
    },
    {
      "citation_status": "RESOLVED",
      "decision": "REMOVE_NON_RELEVANT",
      "normalized_atomic_requirement": "There is more than one value of STRATAVN for a given value of STRATAV, considering only those rows on which both variables are populated",
      "reason": "semantic_duplicate_requirement",
      "rule_id": "adam-conformance-rules:sheet-Rules Catalogue_row-1258",
      "rule_type": "CONFORMANCE_RULE",
      "shard": "adam-conformance-rules.json",
      "source_section_classification": "OPERATIVE_RULE",
      "standard_id": "adam-conformance-rules"
    },
    {
      "citation_status": "RESOLVED",
      "decision": "REMOVE_NON_RELEVANT",
      "normalized_atomic_requirement": "On a given record, STRATwV is populated and STRATwVN is not populated",
      "reason": "semantic_duplicate_requirement",
      "rule_id": "adam-conformance-rules:sheet-Rules Catalogue_row-1260",
      "rule_type": "CONFORMANCE_RULE",
      "shard": "adam-conformance-rules.json",
      "source_section_classification": "OPERATIVE_RULE",
      "standard_id": "adam-conformance-rules"
    },
    {
      "citation_status": "RESOLVED",
      "decision": "REMOVE_NON_RELEVANT",
      "normalized_atomic_requirement": "On a given record, STRATwVN is populated and STRATwV is not populated",
      "reason": "semantic_duplicate_requirement",
      "rule_id": "adam-conformance-rules:sheet-Rules Catalogue_row-1262",
      "rule_type": "CONFORMANCE_RULE",
      "shard": "adam-conformance-rules.json",
      "source_section_classification": "OPERATIVE_RULE",
      "standard_id": "adam-conformance-rules"
    },
    {
      "citation_status": "RESOLVED",
      "decision": "REMOVE_NON_RELEVANT",
      "normalized_atomic_requirement": "There is more than one value of STRATwV for a given value of STRATwVN, considering only those rows on which both variables are populated",
      "reason": "semantic_duplicate_requirement",
      "rule_id": "adam-conformance-rules:sheet-Rules Catalogue_row-1264",
      "rule_type": "CONFORMANCE_RULE",
      "shard": "adam-conformance-rules.json",
      "source_section_classification": "OPERATIVE_RULE",
      "standard_id": "adam-conformance-rules"
    },
    {
      "citation_status": "RESOLVED",
      "decision": "REMOVE_NON_RELEVANT",
      "normalized_atomic_requirement": "There is more than one value of STRATwVN for a given value of STRATwV, considering only those rows on which both variables are populated",
      "reason": "semantic_duplicate_requirement",
      "rule_id": "adam-conformance-rules:sheet-Rules Catalogue_row-1266",
      "rule_type": "CONFORMANCE_RULE",
      "shard": "adam-conformance-rules.json",
      "source_section_classification": "OPERATIVE_RULE",
      "standard_id": "adam-conformance-rules"
    },
    {
      "citation_status": "RESOLVED",
      "decision": "REMOVE_NON_RELEVANT",
      "normalized_atomic_requirement": "A variable with a suffix of PFN has a value that is not 1 or null",
      "reason": "semantic_duplicate_requirement",
      "rule_id": "adam-conformance-rules:sheet-Rules Catalogue_row-128",
      "rule_type": "CONFORMANCE_RULE",
      "shard": "adam-conformance-rules.json",
      "source_section_classification": "OPERATIVE_RULE",
      "standard_id": "adam-conformance-rules"
    },
    {
      "citation_status": "RESOLVED",
      "decision": "REMOVE_NON_RELEVANT",
      "normalized_atomic_requirement": "A dataset name does not start with \"AD\" when dataset class is not missing",
      "reason": "semantic_duplicate_requirement",
      "rule_id": "adam-conformance-rules:sheet-Rules Catalogue_row-1294",
      "rule_type": "CONFORMANCE_RULE",
      "shard": "adam-conformance-rules.json",
      "source_section_classification": "OPERATIVE_RULE",
      "standard_id": "adam-conformance-rules"
    },
    {
      "citation_status": "RESOLVED",
      "decision": "REMOVE_NON_RELEVANT",
      "normalized_atomic_requirement": "A dataset name does not start with \"AD\" when dataset class is not missing",
      "reason": "semantic_duplicate_requirement",
      "rule_id": "adam-conformance-rules:sheet-Rules Catalogue_row-1295",
      "rule_type": "CONFORMANCE_RULE",
      "shard": "adam-conformance-rules.json",
      "source_section_classification": "OPERATIVE_RULE",
      "standard_id": "adam-conformance-rules"
    },
    {
      "citation_status": "RESOLVED",
      "decision": "REMOVE_NON_RELEVANT",
      "normalized_atomic_requirement": "A dataset name does not start with \"AD\" when dataset class is not missing",
      "reason": "semantic_duplicate_requirement",
      "rule_id": "adam-conformance-rules:sheet-Rules Catalogue_row-1296",
      "rule_type": "CONFORMANCE_RULE",
      "shard": "adam-conformance-rules.json",
      "source_section_classification": "OPERATIVE_RULE",
      "standard_id": "adam-conformance-rules"
    },
    {
      "citation_status": "RESOLVED",
      "decision": "REMOVE_NON_RELEVANT",
      "normalized_atomic_requirement": "A dataset name starts with \"AD\" when the dataset class is missing",
      "reason": "semantic_duplicate_requirement",
      "rule_id": "adam-conformance-rules:sheet-Rules Catalogue_row-1298",
      "rule_type": "CONFORMANCE_RULE",
      "shard": "adam-conformance-rules.json",
      "source_section_classification": "OPERATIVE_RULE",
      "standard_id": "adam-conformance-rules"
    },
    {
      "citation_status": "RESOLVED",
      "decision": "REMOVE_NON_RELEVANT",
      "normalized_atomic_requirement": "A dataset name starts with \"AD\" when the dataset class is missing",
      "reason": "semantic_duplicate_requirement",
      "rule_id": "adam-conformance-rules:sheet-Rules Catalogue_row-1299",
      "rule_type": "CONFORMANCE_RULE",
      "shard": "adam-conformance-rules.json",
      "source_section_classification": "OPERATIVE_RULE",
      "standard_id": "adam-conformance-rules"
    },
    {
      "citation_status": "RESOLVED",
      "decision": "REMOVE_NON_RELEVANT",
      "normalized_atomic_requirement": "A variable with a suffix of FL has a value that is not Y, N or null",
      "reason": "semantic_duplicate_requirement",
      "rule_id": "adam-conformance-rules:sheet-Rules Catalogue_row-13",
      "rule_type": "CONFORMANCE_RULE",
      "shard": "adam-conformance-rules.json",
      "source_section_classification": "OPERATIVE_RULE",
      "standard_id": "adam-conformance-rules"
    },
    {
      "citation_status": "RESOLVED",
      "decision": "REMOVE_NON_RELEVANT",
      "normalized_atomic_requirement": "For every unique combination of a w value of ASPER and xx value of APERIOD in BDS or OCCDS datasets, there is not a variable PxxSw",
      "reason": "semantic_duplicate_requirement",
      "rule_id": "adam-conformance-rules:sheet-Rules Catalogue_row-1301",
      "rule_type": "CONFORMANCE_RULE",
      "shard": "adam-conformance-rules.json",
      "source_section_classification": "OPERATIVE_RULE",
      "standard_id": "adam-conformance-rules"
    },
    {
      "citation_status": "RESOLVED",
      "decision": "REMOVE_NON_RELEVANT",
      "normalized_atomic_requirement": "A variable ending in DT must contain \"Date\" in the label",
      "reason": "semantic_duplicate_requirement",
      "rule_id": "adam-conformance-rules:sheet-Rules Catalogue_row-1309",
      "rule_type": "CONFORMANCE_RULE",
      "shard": "adam-conformance-rules.json",
      "source_section_classification": "OPERATIVE_RULE",
      "standard_id": "adam-conformance-rules"
    },
    {
      "citation_status": "RESOLVED",
      "decision": "REMOVE_NON_RELEVANT",
      "normalized_atomic_requirement": "A variable ending in DT must contain \"Date\" in the label",
      "reason": "semantic_duplicate_requirement",
      "rule_id": "adam-conformance-rules:sheet-Rules Catalogue_row-1310",
      "rule_type": "CONFORMANCE_RULE",
      "shard": "adam-conformance-rules.json",
      "source_section_classification": "OPERATIVE_RULE",
      "standard_id": "adam-conformance-rules"
    },
    {
      "citation_status": "RESOLVED",
      "decision": "REMOVE_NON_RELEVANT",
      "normalized_atomic_requirement": "A variable ending in TM must contain \"Time\" in the label",
      "reason": "semantic_duplicate_requirement",
      "rule_id": "adam-conformance-rules:sheet-Rules Catalogue_row-1312",
      "rule_type": "CONFORMANCE_RULE",
      "shard": "adam-conformance-rules.json",
      "source_section_classification": "OPERATIVE_RULE",
      "standard_id": "adam-conformance-rules"
    },
    {
      "citation_status": "RESOLVED",
      "decision": "REMOVE_NON_RELEVANT",
      "normalized_atomic_requirement": "A variable ending in TM must contain \"Time\" in the label",
      "reason": "semantic_duplicate_requirement",
      "rule_id": "adam-conformance-rules:sheet-Rules Catalogue_row-1313",
      "rule_type": "CONFORMANCE_RULE",
      "shard": "adam-conformance-rules.json",
      "source_section_classification": "OPERATIVE_RULE",
      "standard_id": "adam-conformance-rules"
    },
    {
      "citation_status": "RESOLVED",
      "decision": "REMOVE_NON_RELEVANT",
      "normalized_atomic_requirement": "A variable ending in DTM must contain \"Datetime\" in the label",
      "reason": "semantic_duplicate_requirement",
      "rule_id": "adam-conformance-rules:sheet-Rules Catalogue_row-1315",
      "rule_type": "CONFORMANCE_RULE",
      "shard": "adam-conformance-rules.json",
      "source_section_classification": "OPERATIVE_RULE",
      "standard_id": "adam-conformance-rules"
    },
    {
      "citation_status": "RESOLVED",
      "decision": "REMOVE_NON_RELEVANT",
      "normalized_atomic_requirement": "A variable ending in DTM must contain \"Datetime\" in the label",
      "reason": "semantic_duplicate_requirement",
      "rule_id": "adam-conformance-rules:sheet-Rules Catalogue_row-1316",
      "rule_type": "CONFORMANCE_RULE",
      "shard": "adam-conformance-rules.json",
      "source_section_classification": "OPERATIVE_RULE",
      "standard_id": "adam-conformance-rules"
    },
    {
      "citation_status": "RESOLVED",
      "decision": "REMOVE_NON_RELEVANT",
      "normalized_atomic_requirement": "A variable ending in ADY must contain \"Relative Day\" in the label",
      "reason": "semantic_duplicate_requirement",
      "rule_id": "adam-conformance-rules:sheet-Rules Catalogue_row-1318",
      "rule_type": "CONFORMANCE_RULE",
      "shard": "adam-conformance-rules.json",
      "source_section_classification": "OPERATIVE_RULE",
      "standard_id": "adam-conformance-rules"
    },
    {
      "citation_status": "RESOLVED",
      "decision": "REMOVE_NON_RELEVANT",
      "normalized_atomic_requirement": "A variable ending in ADY must contain \"Relative Day\" in the label",
      "reason": "semantic_duplicate_requirement",
      "rule_id": "adam-conformance-rules:sheet-Rules Catalogue_row-1319",
      "rule_type": "CONFORMANCE_RULE",
      "shard": "adam-conformance-rules.json",
      "source_section_classification": "OPERATIVE_RULE",
      "standard_id": "adam-conformance-rules"
    },
    {
      "citation_status": "RESOLVED",
      "decision": "REMOVE_NON_RELEVANT",
      "normalized_atomic_requirement": "A variable ending in DTF must contain \"Date Imputation Flag\" in the label",
      "reason": "semantic_duplicate_requirement",
      "rule_id": "adam-conformance-rules:sheet-Rules Catalogue_row-1321",
      "rule_type": "CONFORMANCE_RULE",
      "shard": "adam-conformance-rules.json",
      "source_section_classification": "OPERATIVE_RULE",
      "standard_id": "adam-conformance-rules"
    },
    {
      "citation_status": "RESOLVED",
      "decision": "REMOVE_NON_RELEVANT",
      "normalized_atomic_requirement": "A variable ending in DTF must contain \"Date Imputation Flag\" in the label",
      "reason": "semantic_duplicate_requirement",
      "rule_id": "adam-conformance-rules:sheet-Rules Catalogue_row-1322",
      "rule_type": "CONFORMANCE_RULE",
      "shard": "adam-conformance-rules.json",
      "source_section_classification": "OPERATIVE_RULE",
      "standard_id": "adam-conformance-rules"
    },
    {
      "citation_status": "RESOLVED",
      "decision": "REMOVE_NON_RELEVANT",
      "normalized_atomic_requirement": "A variable ending in TMF must contain \"Time Imputation Flag\" in the label",
      "reason": "semantic_duplicate_requirement",
      "rule_id": "adam-conformance-rules:sheet-Rules Catalogue_row-1324",
      "rule_type": "CONFORMANCE_RULE",
      "shard": "adam-conformance-rules.json",
      "source_section_classification": "OPERATIVE_RULE",
      "standard_id": "adam-conformance-rules"
    },
    {
      "citation_status": "RESOLVED",
      "decision": "REMOVE_NON_RELEVANT",
      "normalized_atomic_requirement": "A variable ending in TMF must contain \"Time Imputation Flag\" in the label",
      "reason": "semantic_duplicate_requirement",
      "rule_id": "adam-conformance-rules:sheet-Rules Catalogue_row-1325",
      "rule_type": "CONFORMANCE_RULE",
      "shard": "adam-conformance-rules.json",
      "source_section_classification": "OPERATIVE_RULE",
      "standard_id": "adam-conformance-rules"
    },
    {
      "citation_status": "RESOLVED",
      "decision": "REMOVE_NON_RELEVANT",
      "normalized_atomic_requirement": "A variable ending in SDT must contain \"Start Date\" in the label",
      "reason": "semantic_duplicate_requirement",
      "rule_id": "adam-conformance-rules:sheet-Rules Catalogue_row-1327",
      "rule_type": "CONFORMANCE_RULE",
      "shard": "adam-conformance-rules.json",
      "source_section_classification": "OPERATIVE_RULE",
      "standard_id": "adam-conformance-rules"
    },
    {
      "citation_status": "RESOLVED",
      "decision": "REMOVE_NON_RELEVANT",
      "normalized_atomic_requirement": "A variable ending in SDT must contain \"Start Date\" in the label",
      "reason": "semantic_duplicate_requirement",
      "rule_id": "adam-conformance-rules:sheet-Rules Catalogue_row-1328",
      "rule_type": "CONFORMANCE_RULE",
      "shard": "adam-conformance-rules.json",
      "source_section_classification": "OPERATIVE_RULE",
      "standard_id": "adam-conformance-rules"
    },
    {
      "citation_status": "RESOLVED",
      "decision": "REMOVE_NON_RELEVANT",
      "normalized_atomic_requirement": "There is more than one value of a variable which has a suffix of GRyN for a given value of a variable with the same root name and suffix of GRy, considering only those rows on which both variables are populated",
      "reason": "semantic_duplicate_requirement",
      "rule_id": "adam-conformance-rules:sheet-Rules Catalogue_row-133",
      "rule_type": "CONFORMANCE_RULE",
      "shard": "adam-conformance-rules.json",
      "source_section_classification": "OPERATIVE_RULE",
      "standard_id": "adam-conformance-rules"
    },
    {
      "citation_status": "RESOLVED",
      "decision": "REMOVE_NON_RELEVANT",
      "normalized_atomic_requirement": "A variable ending in STM must contain \"Start Time\" in the label",
      "reason": "semantic_duplicate_requirement",
      "rule_id": "adam-conformance-rules:sheet-Rules Catalogue_row-1330",
      "rule_type": "CONFORMANCE_RULE",
      "shard": "adam-conformance-rules.json",
      "source_section_classification": "OPERATIVE_RULE",
      "standard_id": "adam-conformance-rules"
    },
    {
      "citation_status": "RESOLVED",
      "decision": "REMOVE_NON_RELEVANT",
      "normalized_atomic_requirement": "A variable ending in STM must contain \"Start Time\" in the label",
      "reason": "semantic_duplicate_requirement",
      "rule_id": "adam-conformance-rules:sheet-Rules Catalogue_row-1331",
      "rule_type": "CONFORMANCE_RULE",
      "shard": "adam-conformance-rules.json",
      "source_section_classification": "OPERATIVE_RULE",
      "standard_id": "adam-conformance-rules"
    },
    {
      "citation_status": "RESOLVED",
      "decision": "REMOVE_NON_RELEVANT",
      "normalized_atomic_requirement": "A variable ending in SDTM must contain \"Start Datetime\" in the label",
      "reason": "semantic_duplicate_requirement",
      "rule_id": "adam-conformance-rules:sheet-Rules Catalogue_row-1333",
      "rule_type": "CONFORMANCE_RULE",
      "shard": "adam-conformance-rules.json",
      "source_section_classification": "OPERATIVE_RULE",
      "standard_id": "adam-conformance-rules"
    },
    {
      "citation_status": "RESOLVED",
      "decision": "REMOVE_NON_RELEVANT",
      "normalized_atomic_requirement": "A variable ending in SDTM must contain \"Start Datetime\" in the label",
      "reason": "semantic_duplicate_requirement",
      "rule_id": "adam-conformance-rules:sheet-Rules Catalogue_row-1334",
      "rule_type": "CONFORMANCE_RULE",
      "shard": "adam-conformance-rules.json",
      "source_section_classification": "OPERATIVE_RULE",
      "standard_id": "adam-conformance-rules"
    },
    {
      "citation_status": "RESOLVED",
      "decision": "REMOVE_NON_RELEVANT",
      "normalized_atomic_requirement": "A variable ending in SDY must contain \"Relative Start Day\" in the label",
      "reason": "semantic_duplicate_requirement",
      "rule_id": "adam-conformance-rules:sheet-Rules Catalogue_row-1336",
      "rule_type": "CONFORMANCE_RULE",
      "shard": "adam-conformance-rules.json",
      "source_section_classification": "OPERATIVE_RULE",
      "standard_id": "adam-conformance-rules"
    },
    {
      "citation_status": "RESOLVED",
      "decision": "REMOVE_NON_RELEVANT",
      "normalized_atomic_requirement": "A variable ending in SDY must contain \"Relative Start Day\" in the label",
      "reason": "semantic_duplicate_requirement",
      "rule_id": "adam-conformance-rules:sheet-Rules Catalogue_row-1337",
      "rule_type": "CONFORMANCE_RULE",
      "shard": "adam-conformance-rules.json",
      "source_section_classification": "OPERATIVE_RULE",
      "standard_id": "adam-conformance-rules"
    },
    {
      "citation_status": "RESOLVED",
      "decision": "REMOVE_NON_RELEVANT",
      "normalized_atomic_requirement": "A variable ending in SDTF must contain \"Start Date Imputation Flag\" in the label",
      "reason": "semantic_duplicate_requirement",
      "rule_id": "adam-conformance-rules:sheet-Rules Catalogue_row-1339",
      "rule_type": "CONFORMANCE_RULE",
      "shard": "adam-conformance-rules.json",
      "source_section_classification": "OPERATIVE_RULE",
      "standard_id": "adam-conformance-rules"
    },
    {
      "citation_status": "RESOLVED",
      "decision": "REMOVE_NON_RELEVANT",
      "normalized_atomic_requirement": "There is more than one value of a variable which has a suffix of GRyN for a given value of a variable with the same root name and suffix of GRy, considering only those rows on which both variables are populated",
      "reason": "semantic_duplicate_requirement",
      "rule_id": "adam-conformance-rules:sheet-Rules Catalogue_row-134",
      "rule_type": "CONFORMANCE_RULE",
      "shard": "adam-conformance-rules.json",
      "source_section_classification": "OPERATIVE_RULE",
      "standard_id": "adam-conformance-rules"
    },
    {
      "citation_status": "RESOLVED",
      "decision": "REMOVE_NON_RELEVANT",
      "normalized_atomic_requirement": "A variable ending in SDTF must contain \"Start Date Imputation Flag\" in the label",
      "reason": "semantic_duplicate_requirement",
      "rule_id": "adam-conformance-rules:sheet-Rules Catalogue_row-1340",
      "rule_type": "CONFORMANCE_RULE",
      "shard": "adam-conformance-rules.json",
      "source_section_classification": "OPERATIVE_RULE",
      "standard_id": "adam-conformance-rules"
    },
    {
      "citation_status": "RESOLVED",
      "decision": "REMOVE_NON_RELEVANT",
      "normalized_atomic_requirement": "A variable ending in STMF must contain \"Start Time Imputation Flag\" in the label",
      "reason": "semantic_duplicate_requirement",
      "rule_id": "adam-conformance-rules:sheet-Rules Catalogue_row-1342",
      "rule_type": "CONFORMANCE_RULE",
      "shard": "adam-conformance-rules.json",
      "source_section_classification": "OPERATIVE_RULE",
      "standard_id": "adam-conformance-rules"
    },
    {
      "citation_status": "RESOLVED",
      "decision": "REMOVE_NON_RELEVANT",
      "normalized_atomic_requirement": "A variable ending in STMF must contain \"Start Time Imputation Flag\" in the label",
      "reason": "semantic_duplicate_requirement",
      "rule_id": "adam-conformance-rules:sheet-Rules Catalogue_row-1343",
      "rule_type": "CONFORMANCE_RULE",
      "shard": "adam-conformance-rules.json",
      "source_section_classification": "OPERATIVE_RULE",
      "standard_id": "adam-conformance-rules"
    },
    {
      "citation_status": "RESOLVED",
      "decision": "REMOVE_NON_RELEVANT",
      "normalized_atomic_requirement": "A variable ending in EDT must contain \"End Date\" in the label",
      "reason": "semantic_duplicate_requirement",
      "rule_id": "adam-conformance-rules:sheet-Rules Catalogue_row-1345",
      "rule_type": "CONFORMANCE_RULE",
      "shard": "adam-conformance-rules.json",
      "source_section_classification": "OPERATIVE_RULE",
      "standard_id": "adam-conformance-rules"
    },
    {
      "citation_status": "RESOLVED",
      "decision": "REMOVE_NON_RELEVANT",
      "normalized_atomic_requirement": "A variable ending in EDT must contain \"End Date\" in the label",
      "reason": "semantic_duplicate_requirement",
      "rule_id": "adam-conformance-rules:sheet-Rules Catalogue_row-1346",
      "rule_type": "CONFORMANCE_RULE",
      "shard": "adam-conformance-rules.json",
      "source_section_classification": "OPERATIVE_RULE",
      "standard_id": "adam-conformance-rules"
    },
    {
      "citation_status": "RESOLVED",
      "decision": "REMOVE_NON_RELEVANT",
      "normalized_atomic_requirement": "A variable ending in ETM must contain \"End Time\" in the label",
      "reason": "semantic_duplicate_requirement",
      "rule_id": "adam-conformance-rules:sheet-Rules Catalogue_row-1348",
      "rule_type": "CONFORMANCE_RULE",
      "shard": "adam-conformance-rules.json",
      "source_section_classification": "OPERATIVE_RULE",
      "standard_id": "adam-conformance-rules"
    },
    {
      "citation_status": "RESOLVED",
      "decision": "REMOVE_NON_RELEVANT",
      "normalized_atomic_requirement": "A variable ending in ETM must contain \"End Time\" in the label",
      "reason": "semantic_duplicate_requirement",
      "rule_id": "adam-conformance-rules:sheet-Rules Catalogue_row-1349",
      "rule_type": "CONFORMANCE_RULE",
      "shard": "adam-conformance-rules.json",
      "source_section_classification": "OPERATIVE_RULE",
      "standard_id": "adam-conformance-rules"
    },
    {
      "citation_status": "RESOLVED",
      "decision": "REMOVE_NON_RELEVANT",
      "normalized_atomic_requirement": "A variable ending in EDTM must contain \"End Datetime\" in the label",
      "reason": "semantic_duplicate_requirement",
      "rule_id": "adam-conformance-rules:sheet-Rules Catalogue_row-1351",
      "rule_type": "CONFORMANCE_RULE",
      "shard": "adam-conformance-rules.json",
      "source_section_classification": "OPERATIVE_RULE",
      "standard_id": "adam-conformance-rules"
    },
    {
      "citation_status": "RESOLVED",
      "decision": "REMOVE_NON_RELEVANT",
      "normalized_atomic_requirement": "A variable ending in EDTM must contain \"End Datetime\" in the label",
      "reason": "semantic_duplicate_requirement",
      "rule_id": "adam-conformance-rules:sheet-Rules Catalogue_row-1352",
      "rule_type": "CONFORMANCE_RULE",
      "shard": "adam-conformance-rules.json",
      "source_section_classification": "OPERATIVE_RULE",
      "standard_id": "adam-conformance-rules"
    },
    {
      "citation_status": "RESOLVED",
      "decision": "REMOVE_NON_RELEVANT",
      "normalized_atomic_requirement": "A variable ending in EDY must contain \"Relative End Day\" in the label",
      "reason": "semantic_duplicate_requirement",
      "rule_id": "adam-conformance-rules:sheet-Rules Catalogue_row-1354",
      "rule_type": "CONFORMANCE_RULE",
      "shard": "adam-conformance-rules.json",
      "source_section_classification": "OPERATIVE_RULE",
      "standard_id": "adam-conformance-rules"
    },
    {
      "citation_status": "RESOLVED",
      "decision": "REMOVE_NON_RELEVANT",
      "normalized_atomic_requirement": "A variable ending in EDY must contain \"Relative End Day\" in the label",
      "reason": "semantic_duplicate_requirement",
      "rule_id": "adam-conformance-rules:sheet-Rules Catalogue_row-1355",
      "rule_type": "CONFORMANCE_RULE",
      "shard": "adam-conformance-rules.json",
      "source_section_classification": "OPERATIVE_RULE",
      "standard_id": "adam-conformance-rules"
    },
    {
      "citation_status": "RESOLVED",
      "decision": "REMOVE_NON_RELEVANT",
      "normalized_atomic_requirement": "A variable ending in EDTF must contain \"End Date Imputation Flag\" in the label",
      "reason": "semantic_duplicate_requirement",
      "rule_id": "adam-conformance-rules:sheet-Rules Catalogue_row-1357",
      "rule_type": "CONFORMANCE_RULE",
      "shard": "adam-conformance-rules.json",
      "source_section_classification": "OPERATIVE_RULE",
      "standard_id": "adam-conformance-rules"
    },
    {
      "citation_status": "RESOLVED",
      "decision": "REMOVE_NON_RELEVANT",
      "normalized_atomic_requirement": "A variable ending in EDTF must contain \"End Date Imputation Flag\" in the label",
      "reason": "semantic_duplicate_requirement",
      "rule_id": "adam-conformance-rules:sheet-Rules Catalogue_row-1358",
      "rule_type": "CONFORMANCE_RULE",
      "shard": "adam-conformance-rules.json",
      "source_section_classification": "OPERATIVE_RULE",
      "standard_id": "adam-conformance-rules"
    },
    {
      "citation_status": "RESOLVED",
      "decision": "REMOVE_NON_RELEVANT",
      "normalized_atomic_requirement": "A variable ending in ETMF must contain \"End Time Imputation Flag\" in the label",
      "reason": "semantic_duplicate_requirement",
      "rule_id": "adam-conformance-rules:sheet-Rules Catalogue_row-1360",
      "rule_type": "CONFORMANCE_RULE",
      "shard": "adam-conformance-rules.json",
      "source_section_classification": "OPERATIVE_RULE",
      "standard_id": "adam-conformance-rules"
    },
    {
      "citation_status": "RESOLVED",
      "decision": "REMOVE_NON_RELEVANT",
      "normalized_atomic_requirement": "A variable ending in ETMF must contain \"End Time Imputation Flag\" in the label",
      "reason": "semantic_duplicate_requirement",
      "rule_id": "adam-conformance-rules:sheet-Rules Catalogue_row-1361",
      "rule_type": "CONFORMANCE_RULE",
      "shard": "adam-conformance-rules.json",
      "source_section_classification": "OPERATIVE_RULE",
      "standard_id": "adam-conformance-rules"
    },
    {
      "citation_status": "RESOLVED",
      "decision": "REMOVE_NON_RELEVANT",
      "normalized_atomic_requirement": "A variable which has a suffix of GRyN is present and a variable with the same root name and suffix of GRy is not present",
      "reason": "semantic_duplicate_requirement",
      "rule_id": "adam-conformance-rules:sheet-Rules Catalogue_row-1363",
      "rule_type": "CONFORMANCE_RULE",
      "shard": "adam-conformance-rules.json",
      "source_section_classification": "OPERATIVE_RULE",
      "standard_id": "adam-conformance-rules"
    },
    {
      "citation_status": "RESOLVED",
      "decision": "REMOVE_NON_RELEVANT",
      "normalized_atomic_requirement": "A variable which has a suffix of GRyN is present and a variable with the same root name and suffix of GRy is not present",
      "reason": "semantic_duplicate_requirement",
      "rule_id": "adam-conformance-rules:sheet-Rules Catalogue_row-1364",
      "rule_type": "CONFORMANCE_RULE",
      "shard": "adam-conformance-rules.json",
      "source_section_classification": "OPERATIVE_RULE",
      "standard_id": "adam-conformance-rules"
    },
    {
      "citation_status": "RESOLVED",
      "decision": "REMOVE_NON_RELEVANT",
      "normalized_atomic_requirement": "BTOXGRN is present and BTOXGR is not present",
      "reason": "semantic_duplicate_requirement",
      "rule_id": "adam-conformance-rules:sheet-Rules Catalogue_row-1366",
      "rule_type": "CONFORMANCE_RULE",
      "shard": "adam-conformance-rules.json",
      "source_section_classification": "OPERATIVE_RULE",
      "standard_id": "adam-conformance-rules"
    },
    {
      "citation_status": "RESOLVED",
      "decision": "REMOVE_NON_RELEVANT",
      "normalized_atomic_requirement": "ATOXGRLN is present and ATOXGRL is not present",
      "reason": "semantic_duplicate_requirement",
      "rule_id": "adam-conformance-rules:sheet-Rules Catalogue_row-1369",
      "rule_type": "CONFORMANCE_RULE",
      "shard": "adam-conformance-rules.json",
      "source_section_classification": "OPERATIVE_RULE",
      "standard_id": "adam-conformance-rules"
    },
    {
      "citation_status": "RESOLVED",
      "decision": "REMOVE_NON_RELEVANT",
      "normalized_atomic_requirement": "There is more than one value of a variable which has a suffix of GRy for a given value of a variable with the same root name and suffix of GRyN, considering only those rows on which both variables are populated",
      "reason": "semantic_duplicate_requirement",
      "rule_id": "adam-conformance-rules:sheet-Rules Catalogue_row-137",
      "rule_type": "CONFORMANCE_RULE",
      "shard": "adam-conformance-rules.json",
      "source_section_classification": "OPERATIVE_RULE",
      "standard_id": "adam-conformance-rules"
    },
    {
      "citation_status": "RESOLVED",
      "decision": "REMOVE_NON_RELEVANT",
      "normalized_atomic_requirement": "ATOXGRHN is present and ATOXGRH is not present",
      "reason": "semantic_duplicate_requirement",
      "rule_id": "adam-conformance-rules:sheet-Rules Catalogue_row-1372",
      "rule_type": "CONFORMANCE_RULE",
      "shard": "adam-conformance-rules.json",
      "source_section_classification": "OPERATIVE_RULE",
      "standard_id": "adam-conformance-rules"
    },
    {
      "citation_status": "RESOLVED",
      "decision": "REMOVE_NON_RELEVANT",
      "normalized_atomic_requirement": "ABLFN is present and ABLFL is not present",
      "reason": "semantic_duplicate_requirement",
      "rule_id": "adam-conformance-rules:sheet-Rules Catalogue_row-1375",
      "rule_type": "CONFORMANCE_RULE",
      "shard": "adam-conformance-rules.json",
      "source_section_classification": "OPERATIVE_RULE",
      "standard_id": "adam-conformance-rules"
    },
    {
      "citation_status": "RESOLVED",
      "decision": "REMOVE_NON_RELEVANT",
      "normalized_atomic_requirement": "ANLzzFN is present and ANLzzFL is not present",
      "reason": "semantic_duplicate_requirement",
      "rule_id": "adam-conformance-rules:sheet-Rules Catalogue_row-1378",
      "rule_type": "CONFORMANCE_RULE",
      "shard": "adam-conformance-rules.json",
      "source_section_classification": "OPERATIVE_RULE",
      "standard_id": "adam-conformance-rules"
    },
    {
      "citation_status": "RESOLVED",
      "decision": "REMOVE_NON_RELEVANT",
      "normalized_atomic_requirement": "There is more than one value of a variable which has a suffix of GRy for a given value of a variable with the same root name and suffix of GRyN, considering only those rows on which both variables are populated",
      "reason": "semantic_duplicate_requirement",
      "rule_id": "adam-conformance-rules:sheet-Rules Catalogue_row-138",
      "rule_type": "CONFORMANCE_RULE",
      "shard": "adam-conformance-rules.json",
      "source_section_classification": "OPERATIVE_RULE",
      "standard_id": "adam-conformance-rules"
    },
    {
      "citation_status": "RESOLVED",
      "decision": "REMOVE_NON_RELEVANT",
      "normalized_atomic_requirement": "TRTSEQPN is present and TRTSEQP is not present",
      "reason": "semantic_duplicate_requirement",
      "rule_id": "adam-conformance-rules:sheet-Rules Catalogue_row-1381",
      "rule_type": "CONFORMANCE_RULE",
      "shard": "adam-conformance-rules.json",
      "source_section_classification": "OPERATIVE_RULE",
      "standard_id": "adam-conformance-rules"
    },
    {
      "citation_status": "RESOLVED",
      "decision": "REMOVE_NON_RELEVANT",
      "normalized_atomic_requirement": "TRTSEQPN is present and TRTSEQP is not present",
      "reason": "semantic_duplicate_requirement",
      "rule_id": "adam-conformance-rules:sheet-Rules Catalogue_row-1382",
      "rule_type": "CONFORMANCE_RULE",
      "shard": "adam-conformance-rules.json",
      "source_section_classification": "OPERATIVE_RULE",
      "standard_id": "adam-conformance-rules"
    },
    {
      "citation_status": "RESOLVED",
      "decision": "REMOVE_NON_RELEVANT",
      "normalized_atomic_requirement": "TRTSEQAN is present and TRTSEQA is not present",
      "reason": "semantic_duplicate_requirement",
      "rule_id": "adam-conformance-rules:sheet-Rules Catalogue_row-1384",
      "rule_type": "CONFORMANCE_RULE",
      "shard": "adam-conformance-rules.json",
      "source_section_classification": "OPERATIVE_RULE",
      "standard_id": "adam-conformance-rules"
    },
    {
      "citation_status": "RESOLVED",
      "decision": "REMOVE_NON_RELEVANT",
      "normalized_atomic_requirement": "TRTSEQAN is present and TRTSEQA is not present",
      "reason": "semantic_duplicate_requirement",
      "rule_id": "adam-conformance-rules:sheet-Rules Catalogue_row-1385",
      "rule_type": "CONFORMANCE_RULE",
      "shard": "adam-conformance-rules.json",
      "source_section_classification": "OPERATIVE_RULE",
      "standard_id": "adam-conformance-rules"
    },
    {
      "citation_status": "RESOLVED",
      "decision": "REMOVE_NON_RELEVANT",
      "normalized_atomic_requirement": "AESEVN is present and AESEV is not present",
      "reason": "semantic_duplicate_requirement",
      "rule_id": "adam-conformance-rules:sheet-Rules Catalogue_row-1387",
      "rule_type": "CONFORMANCE_RULE",
      "shard": "adam-conformance-rules.json",
      "source_section_classification": "OPERATIVE_RULE",
      "standard_id": "adam-conformance-rules"
    },
    {
      "citation_status": "RESOLVED",
      "decision": "REMOVE_NON_RELEVANT",
      "normalized_atomic_requirement": "ASEVN is present and ASEV is not present",
      "reason": "semantic_duplicate_requirement",
      "rule_id": "adam-conformance-rules:sheet-Rules Catalogue_row-1390",
      "rule_type": "CONFORMANCE_RULE",
      "shard": "adam-conformance-rules.json",
      "source_section_classification": "OPERATIVE_RULE",
      "standard_id": "adam-conformance-rules"
    },
    {
      "citation_status": "RESOLVED",
      "decision": "REMOVE_NON_RELEVANT",
      "normalized_atomic_requirement": "SEVGRyN is present and SEVGRy is not present",
      "reason": "semantic_duplicate_requirement",
      "rule_id": "adam-conformance-rules:sheet-Rules Catalogue_row-1393",
      "rule_type": "CONFORMANCE_RULE",
      "shard": "adam-conformance-rules.json",
      "source_section_classification": "OPERATIVE_RULE",
      "standard_id": "adam-conformance-rules"
    },
    {
      "citation_status": "RESOLVED",
      "decision": "REMOVE_NON_RELEVANT",
      "normalized_atomic_requirement": "AERELN is present and AEREL is not present",
      "reason": "semantic_duplicate_requirement",
      "rule_id": "adam-conformance-rules:sheet-Rules Catalogue_row-1396",
      "rule_type": "CONFORMANCE_RULE",
      "shard": "adam-conformance-rules.json",
      "source_section_classification": "OPERATIVE_RULE",
      "standard_id": "adam-conformance-rules"
    },
    {
      "citation_status": "RESOLVED",
      "decision": "REMOVE_NON_RELEVANT",
      "normalized_atomic_requirement": "ARELN is present and AREL is not present",
      "reason": "semantic_duplicate_requirement",
      "rule_id": "adam-conformance-rules:sheet-Rules Catalogue_row-1399",
      "rule_type": "CONFORMANCE_RULE",
      "shard": "adam-conformance-rules.json",
      "source_section_classification": "OPERATIVE_RULE",
      "standard_id": "adam-conformance-rules"
    },
    {
      "citation_status": "RESOLVED",
      "decision": "REMOVE_NON_RELEVANT",
      "normalized_atomic_requirement": "A variable with a suffix of FL has a value that is not Y, N or null",
      "reason": "semantic_duplicate_requirement",
      "rule_id": "adam-conformance-rules:sheet-Rules Catalogue_row-14",
      "rule_type": "CONFORMANCE_RULE",
      "shard": "adam-conformance-rules.json",
      "source_section_classification": "OPERATIVE_RULE",
      "standard_id": "adam-conformance-rules"
    },
    {
      "citation_status": "RESOLVED",
      "decision": "REMOVE_NON_RELEVANT",
      "normalized_atomic_requirement": "A variable with a suffix of DTF has a value that is not within Controlled Terminology for DATEFL",
      "reason": "semantic_duplicate_requirement",
      "rule_id": "adam-conformance-rules:sheet-Rules Catalogue_row-140",
      "rule_type": "CONFORMANCE_RULE",
      "shard": "adam-conformance-rules.json",
      "source_section_classification": "OPERATIVE_RULE",
      "standard_id": "adam-conformance-rules"
    },
    {
      "citation_status": "RESOLVED",
      "decision": "REMOVE_NON_RELEVANT",
      "normalized_atomic_requirement": "RELGRyN is present and RELGRy is not present",
      "reason": "semantic_duplicate_requirement",
      "rule_id": "adam-conformance-rules:sheet-Rules Catalogue_row-1402",
      "rule_type": "CONFORMANCE_RULE",
      "shard": "adam-conformance-rules.json",
      "source_section_classification": "OPERATIVE_RULE",
      "standard_id": "adam-conformance-rules"
    },
    {
      "citation_status": "RESOLVED",
      "decision": "REMOVE_NON_RELEVANT",
      "normalized_atomic_requirement": "AETOXGRN is present and AETOXGR is not present",
      "reason": "semantic_duplicate_requirement",
      "rule_id": "adam-conformance-rules:sheet-Rules Catalogue_row-1405",
      "rule_type": "CONFORMANCE_RULE",
      "shard": "adam-conformance-rules.json",
      "source_section_classification": "OPERATIVE_RULE",
      "standard_id": "adam-conformance-rules"
    },
    {
      "citation_status": "RESOLVED",
      "decision": "REMOVE_NON_RELEVANT",
      "normalized_atomic_requirement": "ATOXGRN is present and ATOXGR is not present",
      "reason": "semantic_duplicate_requirement",
      "rule_id": "adam-conformance-rules:sheet-Rules Catalogue_row-1408",
      "rule_type": "CONFORMANCE_RULE",
      "shard": "adam-conformance-rules.json",
      "source_section_classification": "OPERATIVE_RULE",
      "standard_id": "adam-conformance-rules"
    },
    {
      "citation_status": "RESOLVED",
      "decision": "REMOVE_NON_RELEVANT",
      "normalized_atomic_requirement": "A variable with a suffix of DTF has a value that is not within Controlled Terminology for DATEFL",
      "reason": "semantic_duplicate_requirement",
      "rule_id": "adam-conformance-rules:sheet-Rules Catalogue_row-141",
      "rule_type": "CONFORMANCE_RULE",
      "shard": "adam-conformance-rules.json",
      "source_section_classification": "OPERATIVE_RULE",
      "standard_id": "adam-conformance-rules"
    },
    {
      "citation_status": "RESOLVED",
      "decision": "REMOVE_NON_RELEVANT",
      "normalized_atomic_requirement": "TOXGGRyN is present and TOXGGRy is not present",
      "reason": "semantic_duplicate_requirement",
      "rule_id": "adam-conformance-rules:sheet-Rules Catalogue_row-1411",
      "rule_type": "CONFORMANCE_RULE",
      "shard": "adam-conformance-rules.json",
      "source_section_classification": "OPERATIVE_RULE",
      "standard_id": "adam-conformance-rules"
    },
    {
      "citation_status": "RESOLVED",
      "decision": "REMOVE_NON_RELEVANT",
      "normalized_atomic_requirement": "SMQzzSCN is present and SMQzzSC is not present",
      "reason": "semantic_duplicate_requirement",
      "rule_id": "adam-conformance-rules:sheet-Rules Catalogue_row-1414",
      "rule_type": "CONFORMANCE_RULE",
      "shard": "adam-conformance-rules.json",
      "source_section_classification": "OPERATIVE_RULE",
      "standard_id": "adam-conformance-rules"
    },
    {
      "citation_status": "RESOLVED",
      "decision": "REMOVE_NON_RELEVANT",
      "normalized_atomic_requirement": "APHASEN is present and APHASE is not present",
      "reason": "semantic_duplicate_requirement",
      "rule_id": "adam-conformance-rules:sheet-Rules Catalogue_row-1419",
      "rule_type": "CONFORMANCE_RULE",
      "shard": "adam-conformance-rules.json",
      "source_section_classification": "OPERATIVE_RULE",
      "standard_id": "adam-conformance-rules"
    },
    {
      "citation_status": "RESOLVED",
      "decision": "REMOVE_NON_RELEVANT",
      "normalized_atomic_requirement": "A variable with a suffix of DTF has a value that is not within Controlled Terminology for DATEFL",
      "reason": "semantic_duplicate_requirement",
      "rule_id": "adam-conformance-rules:sheet-Rules Catalogue_row-142",
      "rule_type": "CONFORMANCE_RULE",
      "shard": "adam-conformance-rules.json",
      "source_section_classification": "OPERATIVE_RULE",
      "standard_id": "adam-conformance-rules"
    },
    {
      "citation_status": "RESOLVED",
      "decision": "REMOVE_NON_RELEVANT",
      "normalized_atomic_requirement": "ATPTN is present and ATPT is not present",
      "reason": "semantic_duplicate_requirement",
      "rule_id": "adam-conformance-rules:sheet-Rules Catalogue_row-1424",
      "rule_type": "CONFORMANCE_RULE",
      "shard": "adam-conformance-rules.json",
      "source_section_classification": "OPERATIVE_RULE",
      "standard_id": "adam-conformance-rules"
    },
    {
      "citation_status": "RESOLVED",
      "decision": "REMOVE_NON_RELEVANT",
      "normalized_atomic_requirement": "AVALCAyN is present and AVALCATy is not present",
      "reason": "semantic_duplicate_requirement",
      "rule_id": "adam-conformance-rules:sheet-Rules Catalogue_row-1427",
      "rule_type": "CONFORMANCE_RULE",
      "shard": "adam-conformance-rules.json",
      "source_section_classification": "OPERATIVE_RULE",
      "standard_id": "adam-conformance-rules"
    },
    {
      "citation_status": "RESOLVED",
      "decision": "REMOVE_NON_RELEVANT",
      "normalized_atomic_requirement": "BASECAyN is present and BASECATy is not present",
      "reason": "semantic_duplicate_requirement",
      "rule_id": "adam-conformance-rules:sheet-Rules Catalogue_row-1430",
      "rule_type": "CONFORMANCE_RULE",
      "shard": "adam-conformance-rules.json",
      "source_section_classification": "OPERATIVE_RULE",
      "standard_id": "adam-conformance-rules"
    },
    {
      "citation_status": "RESOLVED",
      "decision": "REMOVE_NON_RELEVANT",
      "normalized_atomic_requirement": "CHGCATyN is present and CHGCATy is not present",
      "reason": "semantic_duplicate_requirement",
      "rule_id": "adam-conformance-rules:sheet-Rules Catalogue_row-1433",
      "rule_type": "CONFORMANCE_RULE",
      "shard": "adam-conformance-rules.json",
      "source_section_classification": "OPERATIVE_RULE",
      "standard_id": "adam-conformance-rules"
    },
    {
      "citation_status": "RESOLVED",
      "decision": "REMOVE_NON_RELEVANT",
      "normalized_atomic_requirement": "PCHGCAyN is present and PCHGCATy is not present",
      "reason": "semantic_duplicate_requirement",
      "rule_id": "adam-conformance-rules:sheet-Rules Catalogue_row-1436",
      "rule_type": "CONFORMANCE_RULE",
      "shard": "adam-conformance-rules.json",
      "source_section_classification": "OPERATIVE_RULE",
      "standard_id": "adam-conformance-rules"
    },
    {
      "citation_status": "RESOLVED",
      "decision": "REMOVE_NON_RELEVANT",
      "normalized_atomic_requirement": "PARCATyN is present and PARCATy is not present",
      "reason": "semantic_duplicate_requirement",
      "rule_id": "adam-conformance-rules:sheet-Rules Catalogue_row-1439",
      "rule_type": "CONFORMANCE_RULE",
      "shard": "adam-conformance-rules.json",
      "source_section_classification": "OPERATIVE_RULE",
      "standard_id": "adam-conformance-rules"
    },
    {
      "citation_status": "RESOLVED",
      "decision": "REMOVE_NON_RELEVANT",
      "normalized_atomic_requirement": "A variable with a suffix of TMF has a value that is not within Controlled Terminology for TIMEFL",
      "reason": "semantic_duplicate_requirement",
      "rule_id": "adam-conformance-rules:sheet-Rules Catalogue_row-144",
      "rule_type": "CONFORMANCE_RULE",
      "shard": "adam-conformance-rules.json",
      "source_section_classification": "OPERATIVE_RULE",
      "standard_id": "adam-conformance-rules"
    },
    {
      "citation_status": "RESOLVED",
      "decision": "REMOVE_NON_RELEVANT",
      "normalized_atomic_requirement": "AVISITN is present and AVISIT is not present",
      "reason": "semantic_duplicate_requirement",
      "rule_id": "adam-conformance-rules:sheet-Rules Catalogue_row-1442",
      "rule_type": "CONFORMANCE_RULE",
      "shard": "adam-conformance-rules.json",
      "source_section_classification": "OPERATIVE_RULE",
      "standard_id": "adam-conformance-rules"
    },
    {
      "citation_status": "RESOLVED",
      "decision": "REMOVE_NON_RELEVANT",
      "normalized_atomic_requirement": "DTHCAUSN is present and DTHCAUS is not present",
      "reason": "semantic_duplicate_requirement",
      "rule_id": "adam-conformance-rules:sheet-Rules Catalogue_row-1449",
      "rule_type": "CONFORMANCE_RULE",
      "shard": "adam-conformance-rules.json",
      "source_section_classification": "OPERATIVE_RULE",
      "standard_id": "adam-conformance-rules"
    },
    {
      "citation_status": "RESOLVED",
      "decision": "REMOVE_NON_RELEVANT",
      "normalized_atomic_requirement": "A variable with a suffix of TMF has a value that is not within Controlled Terminology for TIMEFL",
      "reason": "semantic_duplicate_requirement",
      "rule_id": "adam-conformance-rules:sheet-Rules Catalogue_row-145",
      "rule_type": "CONFORMANCE_RULE",
      "shard": "adam-conformance-rules.json",
      "source_section_classification": "OPERATIVE_RULE",
      "standard_id": "adam-conformance-rules"
    },
    {
      "citation_status": "RESOLVED",
      "decision": "REMOVE_NON_RELEVANT",
      "normalized_atomic_requirement": "DTHCAUSN is present and DTHCAUS is not present",
      "reason": "semantic_duplicate_requirement",
      "rule_id": "adam-conformance-rules:sheet-Rules Catalogue_row-1450",
      "rule_type": "CONFORMANCE_RULE",
      "shard": "adam-conformance-rules.json",
      "source_section_classification": "OPERATIVE_RULE",
      "standard_id": "adam-conformance-rules"
    },
    {
      "citation_status": "RESOLVED",
      "decision": "REMOVE_NON_RELEVANT",
      "normalized_atomic_requirement": "MCRITyMN is present and MCRITyML is not present",
      "reason": "semantic_duplicate_requirement",
      "rule_id": "adam-conformance-rules:sheet-Rules Catalogue_row-1452",
      "rule_type": "CONFORMANCE_RULE",
      "shard": "adam-conformance-rules.json",
      "source_section_classification": "OPERATIVE_RULE",
      "standard_id": "adam-conformance-rules"
    },
    {
      "citation_status": "RESOLVED",
      "decision": "REMOVE_NON_RELEVANT",
      "normalized_atomic_requirement": "REGIONyN is present and REGIONy is not present",
      "reason": "semantic_duplicate_requirement",
      "rule_id": "adam-conformance-rules:sheet-Rules Catalogue_row-1455",
      "rule_type": "CONFORMANCE_RULE",
      "shard": "adam-conformance-rules.json",
      "source_section_classification": "OPERATIVE_RULE",
      "standard_id": "adam-conformance-rules"
    },
    {
      "citation_status": "RESOLVED",
      "decision": "REMOVE_NON_RELEVANT",
      "normalized_atomic_requirement": "REGIONyN is present and REGIONy is not present",
      "reason": "semantic_duplicate_requirement",
      "rule_id": "adam-conformance-rules:sheet-Rules Catalogue_row-1456",
      "rule_type": "CONFORMANCE_RULE",
      "shard": "adam-conformance-rules.json",
      "source_section_classification": "OPERATIVE_RULE",
      "standard_id": "adam-conformance-rules"
    },
    {
      "citation_status": "RESOLVED",
      "decision": "REMOVE_NON_RELEVANT",
      "normalized_atomic_requirement": "SHIFTyN is present and SHIFTy is not present",
      "reason": "semantic_duplicate_requirement",
      "rule_id": "adam-conformance-rules:sheet-Rules Catalogue_row-1458",
      "rule_type": "CONFORMANCE_RULE",
      "shard": "adam-conformance-rules.json",
      "source_section_classification": "OPERATIVE_RULE",
      "standard_id": "adam-conformance-rules"
    },
    {
      "citation_status": "RESOLVED",
      "decision": "REMOVE_NON_RELEVANT",
      "normalized_atomic_requirement": "A variable with a suffix of TMF has a value that is not within Controlled Terminology for TIMEFL",
      "reason": "semantic_duplicate_requirement",
      "rule_id": "adam-conformance-rules:sheet-Rules Catalogue_row-146",
      "rule_type": "CONFORMANCE_RULE",
      "shard": "adam-conformance-rules.json",
      "source_section_classification": "OPERATIVE_RULE",
      "standard_id": "adam-conformance-rules"
    },
    {
      "citation_status": "RESOLVED",
      "decision": "REMOVE_NON_RELEVANT",
      "normalized_atomic_requirement": "TRTAN is present and TRTA is not present",
      "reason": "semantic_duplicate_requirement",
      "rule_id": "adam-conformance-rules:sheet-Rules Catalogue_row-1461",
      "rule_type": "CONFORMANCE_RULE",
      "shard": "adam-conformance-rules.json",
      "source_section_classification": "OPERATIVE_RULE",
      "standard_id": "adam-conformance-rules"
    },
    {
      "citation_status": "RESOLVED",
      "decision": "REMOVE_NON_RELEVANT",
      "normalized_atomic_requirement": "TRTPN is present and TRTP is not present",
      "reason": "semantic_duplicate_requirement",
      "rule_id": "adam-conformance-rules:sheet-Rules Catalogue_row-1464",
      "rule_type": "CONFORMANCE_RULE",
      "shard": "adam-conformance-rules.json",
      "source_section_classification": "OPERATIVE_RULE",
      "standard_id": "adam-conformance-rules"
    },
    {
      "citation_status": "RESOLVED",
      "decision": "REMOVE_NON_RELEVANT",
      "normalized_atomic_requirement": "TSEQPGyN is present and TSEQPGy is not present",
      "reason": "semantic_duplicate_requirement",
      "rule_id": "adam-conformance-rules:sheet-Rules Catalogue_row-1467",
      "rule_type": "CONFORMANCE_RULE",
      "shard": "adam-conformance-rules.json",
      "source_section_classification": "OPERATIVE_RULE",
      "standard_id": "adam-conformance-rules"
    },
    {
      "citation_status": "RESOLVED",
      "decision": "REMOVE_NON_RELEVANT",
      "normalized_atomic_requirement": "TSEQPGyN is present and TSEQPGy is not present",
      "reason": "semantic_duplicate_requirement",
      "rule_id": "adam-conformance-rules:sheet-Rules Catalogue_row-1468",
      "rule_type": "CONFORMANCE_RULE",
      "shard": "adam-conformance-rules.json",
      "source_section_classification": "OPERATIVE_RULE",
      "standard_id": "adam-conformance-rules"
    },
    {
      "citation_status": "RESOLVED",
      "decision": "REMOVE_NON_RELEVANT",
      "normalized_atomic_requirement": "TSEQAGyN is present and TSEQAGy is not present",
      "reason": "semantic_duplicate_requirement",
      "rule_id": "adam-conformance-rules:sheet-Rules Catalogue_row-1470",
      "rule_type": "CONFORMANCE_RULE",
      "shard": "adam-conformance-rules.json",
      "source_section_classification": "OPERATIVE_RULE",
      "standard_id": "adam-conformance-rules"
    },
    {
      "citation_status": "RESOLVED",
      "decision": "REMOVE_NON_RELEVANT",
      "normalized_atomic_requirement": "TSEQAGyN is present and TSEQAGy is not present",
      "reason": "semantic_duplicate_requirement",
      "rule_id": "adam-conformance-rules:sheet-Rules Catalogue_row-1471",
      "rule_type": "CONFORMANCE_RULE",
      "shard": "adam-conformance-rules.json",
      "source_section_classification": "OPERATIVE_RULE",
      "standard_id": "adam-conformance-rules"
    },
    {
      "citation_status": "RESOLVED",
      "decision": "REMOVE_NON_RELEVANT",
      "normalized_atomic_requirement": "TRCMPGyN is present and TRCMPGy is not present",
      "reason": "semantic_duplicate_requirement",
      "rule_id": "adam-conformance-rules:sheet-Rules Catalogue_row-1473",
      "rule_type": "CONFORMANCE_RULE",
      "shard": "adam-conformance-rules.json",
      "source_section_classification": "OPERATIVE_RULE",
      "standard_id": "adam-conformance-rules"
    },
    {
      "citation_status": "RESOLVED",
      "decision": "REMOVE_NON_RELEVANT",
      "normalized_atomic_requirement": "TRCMPGyN is present and TRCMPGy is not present",
      "reason": "semantic_duplicate_requirement",
      "rule_id": "adam-conformance-rules:sheet-Rules Catalogue_row-1474",
      "rule_type": "CONFORMANCE_RULE",
      "shard": "adam-conformance-rules.json",
      "source_section_classification": "OPERATIVE_RULE",
      "standard_id": "adam-conformance-rules"
    },
    {
      "citation_status": "RESOLVED",
      "decision": "REMOVE_NON_RELEVANT",
      "normalized_atomic_requirement": "STRATARN is present and STRATAR is not present",
      "reason": "semantic_duplicate_requirement",
      "rule_id": "adam-conformance-rules:sheet-Rules Catalogue_row-1476",
      "rule_type": "CONFORMANCE_RULE",
      "shard": "adam-conformance-rules.json",
      "source_section_classification": "OPERATIVE_RULE",
      "standard_id": "adam-conformance-rules"
    },
    {
      "citation_status": "RESOLVED",
      "decision": "REMOVE_NON_RELEVANT",
      "normalized_atomic_requirement": "STRATwRN is present and STRATwR is not present for the same value of \"w\"",
      "reason": "semantic_duplicate_requirement",
      "rule_id": "adam-conformance-rules:sheet-Rules Catalogue_row-1478",
      "rule_type": "CONFORMANCE_RULE",
      "shard": "adam-conformance-rules.json",
      "source_section_classification": "OPERATIVE_RULE",
      "standard_id": "adam-conformance-rules"
    },
    {
      "citation_status": "RESOLVED",
      "decision": "REMOVE_NON_RELEVANT",
      "normalized_atomic_requirement": "A numeric variable with a suffix of DT does not have a date format",
      "reason": "semantic_duplicate_requirement",
      "rule_id": "adam-conformance-rules:sheet-Rules Catalogue_row-148",
      "rule_type": "CONFORMANCE_RULE",
      "shard": "adam-conformance-rules.json",
      "source_section_classification": "OPERATIVE_RULE",
      "standard_id": "adam-conformance-rules"
    },
    {
      "citation_status": "RESOLVED",
      "decision": "REMOVE_NON_RELEVANT",
      "normalized_atomic_requirement": "STRATAVN is present and STRATAV is not present",
      "reason": "semantic_duplicate_requirement",
      "rule_id": "adam-conformance-rules:sheet-Rules Catalogue_row-1480",
      "rule_type": "CONFORMANCE_RULE",
      "shard": "adam-conformance-rules.json",
      "source_section_classification": "OPERATIVE_RULE",
      "standard_id": "adam-conformance-rules"
    },
    {
      "citation_status": "RESOLVED",
      "decision": "REMOVE_NON_RELEVANT",
      "normalized_atomic_requirement": "STRATwVN is present and STRATwV is not present for the same value of \"w\"",
      "reason": "semantic_duplicate_requirement",
      "rule_id": "adam-conformance-rules:sheet-Rules Catalogue_row-1482",
      "rule_type": "CONFORMANCE_RULE",
      "shard": "adam-conformance-rules.json",
      "source_section_classification": "OPERATIVE_RULE",
      "standard_id": "adam-conformance-rules"
    },
    {
      "citation_status": "RESOLVED",
      "decision": "REMOVE_NON_RELEVANT",
      "normalized_atomic_requirement": "CRITyFN is present and CRITyFL is not present",
      "reason": "semantic_duplicate_requirement",
      "rule_id": "adam-conformance-rules:sheet-Rules Catalogue_row-1488",
      "rule_type": "CONFORMANCE_RULE",
      "shard": "adam-conformance-rules.json",
      "source_section_classification": "OPERATIVE_RULE",
      "standard_id": "adam-conformance-rules"
    },
    {
      "citation_status": "RESOLVED",
      "decision": "REMOVE_NON_RELEVANT",
      "normalized_atomic_requirement": "A numeric variable with a suffix of DT does not have a date format",
      "reason": "semantic_duplicate_requirement",
      "rule_id": "adam-conformance-rules:sheet-Rules Catalogue_row-149",
      "rule_type": "CONFORMANCE_RULE",
      "shard": "adam-conformance-rules.json",
      "source_section_classification": "OPERATIVE_RULE",
      "standard_id": "adam-conformance-rules"
    },
    {
      "citation_status": "RESOLVED",
      "decision": "REMOVE_NON_RELEVANT",
      "normalized_atomic_requirement": "ONTRTFN is present and ONTRTFL is not present",
      "reason": "semantic_duplicate_requirement",
      "rule_id": "adam-conformance-rules:sheet-Rules Catalogue_row-1491",
      "rule_type": "CONFORMANCE_RULE",
      "shard": "adam-conformance-rules.json",
      "source_section_classification": "OPERATIVE_RULE",
      "standard_id": "adam-conformance-rules"
    },
    {
      "citation_status": "RESOLVED",
      "decision": "REMOVE_NON_RELEVANT",
      "normalized_atomic_requirement": "LVOTFN is present and LVOTFL is not present",
      "reason": "semantic_duplicate_requirement",
      "rule_id": "adam-conformance-rules:sheet-Rules Catalogue_row-1494",
      "rule_type": "CONFORMANCE_RULE",
      "shard": "adam-conformance-rules.json",
      "source_section_classification": "OPERATIVE_RULE",
      "standard_id": "adam-conformance-rules"
    },
    {
      "citation_status": "RESOLVED",
      "decision": "REMOVE_NON_RELEVANT",
      "normalized_atomic_requirement": "PxxSw is present and TRTxxP is not present for the same \"xx\" value",
      "reason": "semantic_duplicate_requirement",
      "rule_id": "adam-conformance-rules:sheet-Rules Catalogue_row-1497",
      "rule_type": "CONFORMANCE_RULE",
      "shard": "adam-conformance-rules.json",
      "source_section_classification": "OPERATIVE_RULE",
      "standard_id": "adam-conformance-rules"
    },
    {
      "citation_status": "RESOLVED",
      "decision": "REMOVE_NON_RELEVANT",
      "normalized_atomic_requirement": "PxxSwSDT is present and TRTxxP is not present for the same \"xx\" value",
      "reason": "semantic_duplicate_requirement",
      "rule_id": "adam-conformance-rules:sheet-Rules Catalogue_row-1499",
      "rule_type": "CONFORMANCE_RULE",
      "shard": "adam-conformance-rules.json",
      "source_section_classification": "OPERATIVE_RULE",
      "standard_id": "adam-conformance-rules"
    },
    {
      "citation_status": "RESOLVED",
      "decision": "REMOVE_NON_RELEVANT",
      "normalized_atomic_requirement": "A numeric variable with a suffix of DT does not have a date format",
      "reason": "semantic_duplicate_requirement",
      "rule_id": "adam-conformance-rules:sheet-Rules Catalogue_row-150",
      "rule_type": "CONFORMANCE_RULE",
      "shard": "adam-conformance-rules.json",
      "source_section_classification": "OPERATIVE_RULE",
      "standard_id": "adam-conformance-rules"
    },
    {
      "citation_status": "RESOLVED",
      "decision": "REMOVE_NON_RELEVANT",
      "normalized_atomic_requirement": "PxxSwSDM is present and TRTxxP is not present for the same \"xx\" value",
      "reason": "semantic_duplicate_requirement",
      "rule_id": "adam-conformance-rules:sheet-Rules Catalogue_row-1501",
      "rule_type": "CONFORMANCE_RULE",
      "shard": "adam-conformance-rules.json",
      "source_section_classification": "OPERATIVE_RULE",
      "standard_id": "adam-conformance-rules"
    },
    {
      "citation_status": "RESOLVED",
      "decision": "REMOVE_NON_RELEVANT",
      "normalized_atomic_requirement": "PxxSwSTM is present and TRTxxP is not present for the same \"xx\" value",
      "reason": "semantic_duplicate_requirement",
      "rule_id": "adam-conformance-rules:sheet-Rules Catalogue_row-1503",
      "rule_type": "CONFORMANCE_RULE",
      "shard": "adam-conformance-rules.json",
      "source_section_classification": "OPERATIVE_RULE",
      "standard_id": "adam-conformance-rules"
    },
    {
      "citation_status": "RESOLVED",
      "decision": "REMOVE_NON_RELEVANT",
      "normalized_atomic_requirement": "PxxSwSDF is present and TRTxxP is not present for the same \"xx\" value",
      "reason": "semantic_duplicate_requirement",
      "rule_id": "adam-conformance-rules:sheet-Rules Catalogue_row-1505",
      "rule_type": "CONFORMANCE_RULE",
      "shard": "adam-conformance-rules.json",
      "source_section_classification": "OPERATIVE_RULE",
      "standard_id": "adam-conformance-rules"
    },
    {
      "citation_status": "RESOLVED",
      "decision": "REMOVE_NON_RELEVANT",
      "normalized_atomic_requirement": "PxxSwSTF is present and TRTxxP is not present for the same \"xx\" value",
      "reason": "semantic_duplicate_requirement",
      "rule_id": "adam-conformance-rules:sheet-Rules Catalogue_row-1507",
      "rule_type": "CONFORMANCE_RULE",
      "shard": "adam-conformance-rules.json",
      "source_section_classification": "OPERATIVE_RULE",
      "standard_id": "adam-conformance-rules"
    },
    {
      "citation_status": "RESOLVED",
      "decision": "REMOVE_NON_RELEVANT",
      "normalized_atomic_requirement": "PxxSwEDT is present and TRTxxP is not present for the same \"xx\" value",
      "reason": "semantic_duplicate_requirement",
      "rule_id": "adam-conformance-rules:sheet-Rules Catalogue_row-1509",
      "rule_type": "CONFORMANCE_RULE",
      "shard": "adam-conformance-rules.json",
      "source_section_classification": "OPERATIVE_RULE",
      "standard_id": "adam-conformance-rules"
    },
    {
      "citation_status": "RESOLVED",
      "decision": "REMOVE_NON_RELEVANT",
      "normalized_atomic_requirement": "PxxSwEDM is present and TRTxxP is not present for the same \"xx\" value",
      "reason": "semantic_duplicate_requirement",
      "rule_id": "adam-conformance-rules:sheet-Rules Catalogue_row-1511",
      "rule_type": "CONFORMANCE_RULE",
      "shard": "adam-conformance-rules.json",
      "source_section_classification": "OPERATIVE_RULE",
      "standard_id": "adam-conformance-rules"
    },
    {
      "citation_status": "RESOLVED",
      "decision": "REMOVE_NON_RELEVANT",
      "normalized_atomic_requirement": "PxxSwETM is present and TRTxxP is not present for the same \"xx\" value",
      "reason": "semantic_duplicate_requirement",
      "rule_id": "adam-conformance-rules:sheet-Rules Catalogue_row-1513",
      "rule_type": "CONFORMANCE_RULE",
      "shard": "adam-conformance-rules.json",
      "source_section_classification": "OPERATIVE_RULE",
      "standard_id": "adam-conformance-rules"
    },
    {
      "citation_status": "RESOLVED",
      "decision": "REMOVE_NON_RELEVANT",
      "normalized_atomic_requirement": "PxxSwEDF is present and TRTxxP is not present for the same \"xx\" value",
      "reason": "semantic_duplicate_requirement",
      "rule_id": "adam-conformance-rules:sheet-Rules Catalogue_row-1515",
      "rule_type": "CONFORMANCE_RULE",
      "shard": "adam-conformance-rules.json",
      "source_section_classification": "OPERATIVE_RULE",
      "standard_id": "adam-conformance-rules"
    },
    {
      "citation_status": "RESOLVED",
      "decision": "REMOVE_NON_RELEVANT",
      "normalized_atomic_requirement": "PxxSwETF is present and TRTxxP is not present for the same \"xx\" value",
      "reason": "semantic_duplicate_requirement",
      "rule_id": "adam-conformance-rules:sheet-Rules Catalogue_row-1517",
      "rule_type": "CONFORMANCE_RULE",
      "shard": "adam-conformance-rules.json",
      "source_section_classification": "OPERATIVE_RULE",
      "standard_id": "adam-conformance-rules"
    },
    {
      "citation_status": "RESOLVED",
      "decision": "REMOVE_NON_RELEVANT",
      "normalized_atomic_requirement": "None of TRTP, TRTPGy, TRTA, and TRTAGy are present and none of the character treatment variables in ADSL defined in the IG are present",
      "reason": "semantic_duplicate_requirement",
      "rule_id": "adam-conformance-rules:sheet-Rules Catalogue_row-1519",
      "rule_type": "CONFORMANCE_RULE",
      "shard": "adam-conformance-rules.json",
      "source_section_classification": "OPERATIVE_RULE",
      "standard_id": "adam-conformance-rules"
    },
    {
      "citation_status": "RESOLVED",
      "decision": "REMOVE_NON_RELEVANT",
      "normalized_atomic_requirement": "A numeric variable with a suffix of TM does not have a time format, excluding ARELTM and variables with a suffix of DTM",
      "reason": "semantic_duplicate_requirement",
      "rule_id": "adam-conformance-rules:sheet-Rules Catalogue_row-152",
      "rule_type": "CONFORMANCE_RULE",
      "shard": "adam-conformance-rules.json",
      "source_section_classification": "OPERATIVE_RULE",
      "standard_id": "adam-conformance-rules"
    },
    {
      "citation_status": "RESOLVED",
      "decision": "REMOVE_NON_RELEVANT",
      "normalized_atomic_requirement": "Within a given value of PARAMCD for a subject, BCHG is populated and is not equal to BASE-AVAL",
      "reason": "semantic_duplicate_requirement",
      "rule_id": "adam-conformance-rules:sheet-Rules Catalogue_row-1522",
      "rule_type": "CONFORMANCE_RULE",
      "shard": "adam-conformance-rules.json",
      "source_section_classification": "OPERATIVE_RULE",
      "standard_id": "adam-conformance-rules"
    },
    {
      "citation_status": "RESOLVED",
      "decision": "REMOVE_NON_RELEVANT",
      "normalized_atomic_requirement": "A numeric variable with a suffix of TM does not have a time format, excluding ARELTM and variables with a suffix of DTM",
      "reason": "semantic_duplicate_requirement",
      "rule_id": "adam-conformance-rules:sheet-Rules Catalogue_row-153",
      "rule_type": "CONFORMANCE_RULE",
      "shard": "adam-conformance-rules.json",
      "source_section_classification": "OPERATIVE_RULE",
      "standard_id": "adam-conformance-rules"
    },
    {
      "citation_status": "RESOLVED",
      "decision": "REMOVE_NON_RELEVANT",
      "normalized_atomic_requirement": "Within a given value of PARAMCD for a subject, PBCHG is populated and is not equal to ((BASE-AVAL)/AVAL)*100",
      "reason": "semantic_duplicate_requirement",
      "rule_id": "adam-conformance-rules:sheet-Rules Catalogue_row-1530",
      "rule_type": "CONFORMANCE_RULE",
      "shard": "adam-conformance-rules.json",
      "source_section_classification": "OPERATIVE_RULE",
      "standard_id": "adam-conformance-rules"
    },
    {
      "citation_status": "RESOLVED",
      "decision": "REMOVE_NON_RELEVANT",
      "normalized_atomic_requirement": "A variable is present with the same name as a variable present in ADSL but the variables do not have identical data types",
      "reason": "semantic_duplicate_requirement",
      "rule_id": "adam-conformance-rules:sheet-Rules Catalogue_row-1538",
      "rule_type": "CONFORMANCE_RULE",
      "shard": "adam-conformance-rules.json",
      "source_section_classification": "OPERATIVE_RULE",
      "standard_id": "adam-conformance-rules"
    },
    {
      "citation_status": "RESOLVED",
      "decision": "REMOVE_NON_RELEVANT",
      "normalized_atomic_requirement": "A numeric variable with a suffix of TM does not have a time format, excluding ARELTM and variables with a suffix of DTM",
      "reason": "semantic_duplicate_requirement",
      "rule_id": "adam-conformance-rules:sheet-Rules Catalogue_row-154",
      "rule_type": "CONFORMANCE_RULE",
      "shard": "adam-conformance-rules.json",
      "source_section_classification": "OPERATIVE_RULE",
      "standard_id": "adam-conformance-rules"
    },
    {
      "citation_status": "RESOLVED",
      "decision": "REMOVE_NON_RELEVANT",
      "normalized_atomic_requirement": "A variable is present with the same name as a variable present in ADSL but the variables do not have identical values for a given value of USUBJID",
      "reason": "semantic_duplicate_requirement",
      "rule_id": "adam-conformance-rules:sheet-Rules Catalogue_row-1540",
      "rule_type": "CONFORMANCE_RULE",
      "shard": "adam-conformance-rules.json",
      "source_section_classification": "OPERATIVE_RULE",
      "standard_id": "adam-conformance-rules"
    },
    {
      "citation_status": "RESOLVED",
      "decision": "REMOVE_NON_RELEVANT",
      "normalized_atomic_requirement": "On a given record, the value of APERSDT is not equal to the value of variable APxxSDT where xx equals the value of APERIOD",
      "reason": "semantic_duplicate_requirement",
      "rule_id": "adam-conformance-rules:sheet-Rules Catalogue_row-1542",
      "rule_type": "CONFORMANCE_RULE",
      "shard": "adam-conformance-rules.json",
      "source_section_classification": "OPERATIVE_RULE",
      "standard_id": "adam-conformance-rules"
    },
    {
      "citation_status": "RESOLVED",
      "decision": "REMOVE_NON_RELEVANT",
      "normalized_atomic_requirement": "On a given record, the value of APERSTM is not equal to the value of variable APxxSTM where xx equals the value of APERIOD",
      "reason": "semantic_duplicate_requirement",
      "rule_id": "adam-conformance-rules:sheet-Rules Catalogue_row-1544",
      "rule_type": "CONFORMANCE_RULE",
      "shard": "adam-conformance-rules.json",
      "source_section_classification": "OPERATIVE_RULE",
      "standard_id": "adam-conformance-rules"
    },
    {
      "citation_status": "RESOLVED",
      "decision": "REMOVE_NON_RELEVANT",
      "normalized_atomic_requirement": "On a given record, the value of APERSDTM is not equal to the value of variable APxxSDTM where xx equals the value of APERIOD",
      "reason": "semantic_duplicate_requirement",
      "rule_id": "adam-conformance-rules:sheet-Rules Catalogue_row-1546",
      "rule_type": "CONFORMANCE_RULE",
      "shard": "adam-conformance-rules.json",
      "source_section_classification": "OPERATIVE_RULE",
      "standard_id": "adam-conformance-rules"
    },
    {
      "citation_status": "RESOLVED",
      "decision": "REMOVE_NON_RELEVANT",
      "normalized_atomic_requirement": "On a given record, the value of APEREDT is not equal to the value of variable APxxEDT where xx equals the value of APERIOD",
      "reason": "semantic_duplicate_requirement",
      "rule_id": "adam-conformance-rules:sheet-Rules Catalogue_row-1548",
      "rule_type": "CONFORMANCE_RULE",
      "shard": "adam-conformance-rules.json",
      "source_section_classification": "OPERATIVE_RULE",
      "standard_id": "adam-conformance-rules"
    },
    {
      "citation_status": "RESOLVED",
      "decision": "REMOVE_NON_RELEVANT",
      "normalized_atomic_requirement": "On a given record, the value of APERETM is not equal to the value of variable APxxETM where xx equals the value of APERIOD",
      "reason": "semantic_duplicate_requirement",
      "rule_id": "adam-conformance-rules:sheet-Rules Catalogue_row-1550",
      "rule_type": "CONFORMANCE_RULE",
      "shard": "adam-conformance-rules.json",
      "source_section_classification": "OPERATIVE_RULE",
      "standard_id": "adam-conformance-rules"
    },
    {
      "citation_status": "RESOLVED",
      "decision": "REMOVE_NON_RELEVANT",
      "normalized_atomic_requirement": "On a given record, the value of APEREDTM is not equal to the value of variable APxxEDTM where xx equals the value of APERIOD",
      "reason": "semantic_duplicate_requirement",
      "rule_id": "adam-conformance-rules:sheet-Rules Catalogue_row-1552",
      "rule_type": "CONFORMANCE_RULE",
      "shard": "adam-conformance-rules.json",
      "source_section_classification": "OPERATIVE_RULE",
      "standard_id": "adam-conformance-rules"
    },
    {
      "citation_status": "RESOLVED",
      "decision": "REMOVE_NON_RELEVANT",
      "normalized_atomic_requirement": "On a given record, the value of ASPRSDT is not equal to the value of variable PxxSwSDT where xx equals the value of APERIOD and w equals the value of ASPER",
      "reason": "semantic_duplicate_requirement",
      "rule_id": "adam-conformance-rules:sheet-Rules Catalogue_row-1554",
      "rule_type": "CONFORMANCE_RULE",
      "shard": "adam-conformance-rules.json",
      "source_section_classification": "OPERATIVE_RULE",
      "standard_id": "adam-conformance-rules"
    },
    {
      "citation_status": "RESOLVED",
      "decision": "REMOVE_NON_RELEVANT",
      "normalized_atomic_requirement": "On a given record, the value of ASPRSTM is not equal to the value of variable PxxSwSTM where xx equals the value of APERIOD and w equals the value of ASPER",
      "reason": "semantic_duplicate_requirement",
      "rule_id": "adam-conformance-rules:sheet-Rules Catalogue_row-1556",
      "rule_type": "CONFORMANCE_RULE",
      "shard": "adam-conformance-rules.json",
      "source_section_classification": "OPERATIVE_RULE",
      "standard_id": "adam-conformance-rules"
    },
    {
      "citation_status": "RESOLVED",
      "decision": "REMOVE_NON_RELEVANT",
      "normalized_atomic_requirement": "On a given record, the value of ASPRSDTM is not equal to the value of variable PxxSwSDM where xx equals the value of APERIOD and w equals the value of ASPER",
      "reason": "semantic_duplicate_requirement",
      "rule_id": "adam-conformance-rules:sheet-Rules Catalogue_row-1558",
      "rule_type": "CONFORMANCE_RULE",
      "shard": "adam-conformance-rules.json",
      "source_section_classification": "OPERATIVE_RULE",
      "standard_id": "adam-conformance-rules"
    },
    {
      "citation_status": "RESOLVED",
      "decision": "REMOVE_NON_RELEVANT",
      "normalized_atomic_requirement": "A numeric variable with a suffix of DTM does not have a datetime format",
      "reason": "semantic_duplicate_requirement",
      "rule_id": "adam-conformance-rules:sheet-Rules Catalogue_row-156",
      "rule_type": "CONFORMANCE_RULE",
      "shard": "adam-conformance-rules.json",
      "source_section_classification": "OPERATIVE_RULE",
      "standard_id": "adam-conformance-rules"
    },
    {
      "citation_status": "RESOLVED",
      "decision": "REMOVE_NON_RELEVANT",
      "normalized_atomic_requirement": "On a given record, the value of ASPREDT is not equal to the value of variable PxxSwEDT where xx equals the value of APERIOD and w equals the value of ASPER",
      "reason": "semantic_duplicate_requirement",
      "rule_id": "adam-conformance-rules:sheet-Rules Catalogue_row-1560",
      "rule_type": "CONFORMANCE_RULE",
      "shard": "adam-conformance-rules.json",
      "source_section_classification": "OPERATIVE_RULE",
      "standard_id": "adam-conformance-rules"
    },
    {
      "citation_status": "RESOLVED",
      "decision": "REMOVE_NON_RELEVANT",
      "normalized_atomic_requirement": "On a given record, the value of ASPRETM is not equal to the value of variable PxxSwETM where xx equals the value of APERIOD and w equals the value of ASPER",
      "reason": "semantic_duplicate_requirement",
      "rule_id": "adam-conformance-rules:sheet-Rules Catalogue_row-1562",
      "rule_type": "CONFORMANCE_RULE",
      "shard": "adam-conformance-rules.json",
      "source_section_classification": "OPERATIVE_RULE",
      "standard_id": "adam-conformance-rules"
    },
    {
      "citation_status": "RESOLVED",
      "decision": "REMOVE_NON_RELEVANT",
      "normalized_atomic_requirement": "On a given record, the value of ASPREDTM is not equal to the value of variable PxxSwEDM where xx equals the value of APERIOD and w equals the value of ASPER",
      "reason": "semantic_duplicate_requirement",
      "rule_id": "adam-conformance-rules:sheet-Rules Catalogue_row-1564",
      "rule_type": "CONFORMANCE_RULE",
      "shard": "adam-conformance-rules.json",
      "source_section_classification": "OPERATIVE_RULE",
      "standard_id": "adam-conformance-rules"
    },
    {
      "citation_status": "RESOLVED",
      "decision": "REMOVE_NON_RELEVANT",
      "normalized_atomic_requirement": "On a given record, APHASEN is not present and the value of PHSDT is not equal to the value of at least one PHwSDT variable",
      "reason": "semantic_duplicate_requirement",
      "rule_id": "adam-conformance-rules:sheet-Rules Catalogue_row-1566",
      "rule_type": "CONFORMANCE_RULE",
      "shard": "adam-conformance-rules.json",
      "source_section_classification": "OPERATIVE_RULE",
      "standard_id": "adam-conformance-rules"
    },
    {
      "citation_status": "RESOLVED",
      "decision": "REMOVE_NON_RELEVANT",
      "normalized_atomic_requirement": "On a given record, APHASEN is present and the value of PHSDT is not equal to the value of variable PHwSDT where w equals the value of APHASEN",
      "reason": "semantic_duplicate_requirement",
      "rule_id": "adam-conformance-rules:sheet-Rules Catalogue_row-1568",
      "rule_type": "CONFORMANCE_RULE",
      "shard": "adam-conformance-rules.json",
      "source_section_classification": "OPERATIVE_RULE",
      "standard_id": "adam-conformance-rules"
    },
    {
      "citation_status": "RESOLVED",
      "decision": "REMOVE_NON_RELEVANT",
      "normalized_atomic_requirement": "A numeric variable with a suffix of DTM does not have a datetime format",
      "reason": "semantic_duplicate_requirement",
      "rule_id": "adam-conformance-rules:sheet-Rules Catalogue_row-157",
      "rule_type": "CONFORMANCE_RULE",
      "shard": "adam-conformance-rules.json",
      "source_section_classification": "OPERATIVE_RULE",
      "standard_id": "adam-conformance-rules"
    },
    {
      "citation_status": "RESOLVED",
      "decision": "REMOVE_NON_RELEVANT",
      "normalized_atomic_requirement": "On a given record, APHASEN is not present and the value of PHSTM is not equal to the value of at least one PHwSTM variable",
      "reason": "semantic_duplicate_requirement",
      "rule_id": "adam-conformance-rules:sheet-Rules Catalogue_row-1570",
      "rule_type": "CONFORMANCE_RULE",
      "shard": "adam-conformance-rules.json",
      "source_section_classification": "OPERATIVE_RULE",
      "standard_id": "adam-conformance-rules"
    },
    {
      "citation_status": "RESOLVED",
      "decision": "REMOVE_NON_RELEVANT",
      "normalized_atomic_requirement": "On a given record, APHASEN is present and the value of PHSTM is not equal to the value of variable PHwSTM where w equals the value of APHASEN",
      "reason": "semantic_duplicate_requirement",
      "rule_id": "adam-conformance-rules:sheet-Rules Catalogue_row-1572",
      "rule_type": "CONFORMANCE_RULE",
      "shard": "adam-conformance-rules.json",
      "source_section_classification": "OPERATIVE_RULE",
      "standard_id": "adam-conformance-rules"
    },
    {
      "citation_status": "RESOLVED",
      "decision": "REMOVE_NON_RELEVANT",
      "normalized_atomic_requirement": "On a given record, APHASEN is not present and the value of PHSDTM is not equal to the value of at least one PHwSDTM variable",
      "reason": "semantic_duplicate_requirement",
      "rule_id": "adam-conformance-rules:sheet-Rules Catalogue_row-1574",
      "rule_type": "CONFORMANCE_RULE",
      "shard": "adam-conformance-rules.json",
      "source_section_classification": "OPERATIVE_RULE",
      "standard_id": "adam-conformance-rules"
    },
    {
      "citation_status": "RESOLVED",
      "decision": "REMOVE_NON_RELEVANT",
      "normalized_atomic_requirement": "On a given record, APHASEN is present and the value of PHSDTM is not equal to the value of variable PHwSDTM where w equals the value of APHASEN",
      "reason": "semantic_duplicate_requirement",
      "rule_id": "adam-conformance-rules:sheet-Rules Catalogue_row-1576",
      "rule_type": "CONFORMANCE_RULE",
      "shard": "adam-conformance-rules.json",
      "source_section_classification": "OPERATIVE_RULE",
      "standard_id": "adam-conformance-rules"
    },
    {
      "citation_status": "RESOLVED",
      "decision": "REMOVE_NON_RELEVANT",
      "normalized_atomic_requirement": "On a given record, APHASEN is not present and the value of PHEDT is not equal to the value of at least one PHwEDT variable",
      "reason": "semantic_duplicate_requirement",
      "rule_id": "adam-conformance-rules:sheet-Rules Catalogue_row-1578",
      "rule_type": "CONFORMANCE_RULE",
      "shard": "adam-conformance-rules.json",
      "source_section_classification": "OPERATIVE_RULE",
      "standard_id": "adam-conformance-rules"
    },
    {
      "citation_status": "RESOLVED",
      "decision": "REMOVE_NON_RELEVANT",
      "normalized_atomic_requirement": "A numeric variable with a suffix of DTM does not have a datetime format",
      "reason": "semantic_duplicate_requirement",
      "rule_id": "adam-conformance-rules:sheet-Rules Catalogue_row-158",
      "rule_type": "CONFORMANCE_RULE",
      "shard": "adam-conformance-rules.json",
      "source_section_classification": "OPERATIVE_RULE",
      "standard_id": "adam-conformance-rules"
    },
    {
      "citation_status": "RESOLVED",
      "decision": "REMOVE_NON_RELEVANT",
      "normalized_atomic_requirement": "On a given record, APHASEN is present and the value of PHEDT is not equal to the value of variable PHwEDT where w equals the value of APHASEN",
      "reason": "semantic_duplicate_requirement",
      "rule_id": "adam-conformance-rules:sheet-Rules Catalogue_row-1580",
      "rule_type": "CONFORMANCE_RULE",
      "shard": "adam-conformance-rules.json",
      "source_section_classification": "OPERATIVE_RULE",
      "standard_id": "adam-conformance-rules"
    },
    {
      "citation_status": "RESOLVED",
      "decision": "REMOVE_NON_RELEVANT",
      "normalized_atomic_requirement": "On a given record, APHASEN is not present and the value of PHETM is not equal to the value of at least one PHwETM variable",
      "reason": "semantic_duplicate_requirement",
      "rule_id": "adam-conformance-rules:sheet-Rules Catalogue_row-1582",
      "rule_type": "CONFORMANCE_RULE",
      "shard": "adam-conformance-rules.json",
      "source_section_classification": "OPERATIVE_RULE",
      "standard_id": "adam-conformance-rules"
    },
    {
      "citation_status": "RESOLVED",
      "decision": "REMOVE_NON_RELEVANT",
      "normalized_atomic_requirement": "On a given record, APHASEN is present and the value of PHETM is not equal to the value of variable PHwETM where w equals the value of APHASEN",
      "reason": "semantic_duplicate_requirement",
      "rule_id": "adam-conformance-rules:sheet-Rules Catalogue_row-1584",
      "rule_type": "CONFORMANCE_RULE",
      "shard": "adam-conformance-rules.json",
      "source_section_classification": "OPERATIVE_RULE",
      "standard_id": "adam-conformance-rules"
    },
    {
      "citation_status": "RESOLVED",
      "decision": "REMOVE_NON_RELEVANT",
      "normalized_atomic_requirement": "On a given record, APHASEN is not present and the value of PHEDTM is not equal to the value of at least one PHwEDTM variable",
      "reason": "semantic_duplicate_requirement",
      "rule_id": "adam-conformance-rules:sheet-Rules Catalogue_row-1586",
      "rule_type": "CONFORMANCE_RULE",
      "shard": "adam-conformance-rules.json",
      "source_section_classification": "OPERATIVE_RULE",
      "standard_id": "adam-conformance-rules"
    },
    {
      "citation_status": "RESOLVED",
      "decision": "REMOVE_NON_RELEVANT",
      "normalized_atomic_requirement": "On a given record, APHASEN is present and the value of PHEDTM is not equal to the value of variable PHwEDTM where w equals the value of APHASEN",
      "reason": "semantic_duplicate_requirement",
      "rule_id": "adam-conformance-rules:sheet-Rules Catalogue_row-1588",
      "rule_type": "CONFORMANCE_RULE",
      "shard": "adam-conformance-rules.json",
      "source_section_classification": "OPERATIVE_RULE",
      "standard_id": "adam-conformance-rules"
    },
    {
      "citation_status": "RESOLVED",
      "decision": "REMOVE_NON_RELEVANT",
      "normalized_atomic_requirement": "There is more than one value of TRCMPGy for a given value of TRCMPGyN, where y is an integer [1-99, not zero-padded], considering only those rows on which both variables are populated",
      "reason": "semantic_duplicate_requirement",
      "rule_id": "adam-conformance-rules:sheet-Rules Catalogue_row-1590",
      "rule_type": "CONFORMANCE_RULE",
      "shard": "adam-conformance-rules.json",
      "source_section_classification": "OPERATIVE_RULE",
      "standard_id": "adam-conformance-rules"
    },
    {
      "citation_status": "RESOLVED",
      "decision": "REMOVE_NON_RELEVANT",
      "normalized_atomic_requirement": "There is more than one value of TRCMPGy for a given value of TRCMPGyN, where y is an integer [1-99, not zero-padded], considering only those rows on which both variables are populated",
      "reason": "semantic_duplicate_requirement",
      "rule_id": "adam-conformance-rules:sheet-Rules Catalogue_row-1591",
      "rule_type": "CONFORMANCE_RULE",
      "shard": "adam-conformance-rules.json",
      "source_section_classification": "OPERATIVE_RULE",
      "standard_id": "adam-conformance-rules"
    },
    {
      "citation_status": "RESOLVED",
      "decision": "REMOVE_NON_RELEVANT",
      "normalized_atomic_requirement": "There is more than one value of TRCMPGyN for a given value of TRCMPGy, where y is an integer [1-99, not zero-padded], considering only those rows on which both variables are populated",
      "reason": "semantic_duplicate_requirement",
      "rule_id": "adam-conformance-rules:sheet-Rules Catalogue_row-1593",
      "rule_type": "CONFORMANCE_RULE",
      "shard": "adam-conformance-rules.json",
      "source_section_classification": "OPERATIVE_RULE",
      "standard_id": "adam-conformance-rules"
    },
    {
      "citation_status": "RESOLVED",
      "decision": "REMOVE_NON_RELEVANT",
      "normalized_atomic_requirement": "There is more than one value of TRCMPGyN for a given value of TRCMPGy, where y is an integer [1-99, not zero-padded], considering only those rows on which both variables are populated",
      "reason": "semantic_duplicate_requirement",
      "rule_id": "adam-conformance-rules:sheet-Rules Catalogue_row-1594",
      "rule_type": "CONFORMANCE_RULE",
      "shard": "adam-conformance-rules.json",
      "source_section_classification": "OPERATIVE_RULE",
      "standard_id": "adam-conformance-rules"
    },
    {
      "citation_status": "RESOLVED",
      "decision": "REMOVE_NON_RELEVANT",
      "normalized_atomic_requirement": "LVOTFL is not equal to Y or null",
      "reason": "semantic_duplicate_requirement",
      "rule_id": "adam-conformance-rules:sheet-Rules Catalogue_row-1596",
      "rule_type": "CONFORMANCE_RULE",
      "shard": "adam-conformance-rules.json",
      "source_section_classification": "OPERATIVE_RULE",
      "standard_id": "adam-conformance-rules"
    },
    {
      "citation_status": "RESOLVED",
      "decision": "REMOVE_NON_RELEVANT",
      "normalized_atomic_requirement": "AETERM is not present",
      "reason": "semantic_duplicate_requirement",
      "rule_id": "adam-conformance-rules:sheet-Rules Catalogue_row-1598",
      "rule_type": "CONFORMANCE_RULE",
      "shard": "adam-conformance-rules.json",
      "source_section_classification": "OPERATIVE_RULE",
      "standard_id": "adam-conformance-rules"
    },
    {
      "citation_status": "RESOLVED",
      "decision": "REMOVE_NON_RELEVANT",
      "normalized_atomic_requirement": "AETERM is not present",
      "reason": "semantic_duplicate_requirement",
      "rule_id": "adam-conformance-rules:sheet-Rules Catalogue_row-1599",
      "rule_type": "CONFORMANCE_RULE",
      "shard": "adam-conformance-rules.json",
      "source_section_classification": "OPERATIVE_RULE",
      "standard_id": "adam-conformance-rules"
    },
    {
      "citation_status": "RESOLVED",
      "decision": "REMOVE_NON_RELEVANT",
      "normalized_atomic_requirement": "A variable with a suffix of FL is present and a variable with the same root and a suffix of FN has a value that is not 0, 1 or null",
      "reason": "semantic_duplicate_requirement",
      "rule_id": "adam-conformance-rules:sheet-Rules Catalogue_row-16",
      "rule_type": "CONFORMANCE_RULE",
      "shard": "adam-conformance-rules.json",
      "source_section_classification": "OPERATIVE_RULE",
      "standard_id": "adam-conformance-rules"
    },
    {
      "citation_status": "RESOLVED",
      "decision": "REMOVE_NON_RELEVANT",
      "normalized_atomic_requirement": "A variable with a suffix of TM and a variable with a suffix of DTM with the same root name have different time values",
      "reason": "semantic_duplicate_requirement",
      "rule_id": "adam-conformance-rules:sheet-Rules Catalogue_row-160",
      "rule_type": "CONFORMANCE_RULE",
      "shard": "adam-conformance-rules.json",
      "source_section_classification": "OPERATIVE_RULE",
      "standard_id": "adam-conformance-rules"
    },
    {
      "citation_status": "RESOLVED",
      "decision": "REMOVE_NON_RELEVANT",
      "normalized_atomic_requirement": "AETERM is not present",
      "reason": "semantic_duplicate_requirement",
      "rule_id": "adam-conformance-rules:sheet-Rules Catalogue_row-1600",
      "rule_type": "CONFORMANCE_RULE",
      "shard": "adam-conformance-rules.json",
      "source_section_classification": "OPERATIVE_RULE",
      "standard_id": "adam-conformance-rules"
    },
    {
      "citation_status": "RESOLVED",
      "decision": "REMOVE_NON_RELEVANT",
      "normalized_atomic_requirement": "TRTEMFL is not present",
      "reason": "semantic_duplicate_requirement",
      "rule_id": "adam-conformance-rules:sheet-Rules Catalogue_row-1602",
      "rule_type": "CONFORMANCE_RULE",
      "shard": "adam-conformance-rules.json",
      "source_section_classification": "OPERATIVE_RULE",
      "standard_id": "adam-conformance-rules"
    },
    {
      "citation_status": "RESOLVED",
      "decision": "REMOVE_NON_RELEVANT",
      "normalized_atomic_requirement": "TRTEMFL is not present",
      "reason": "semantic_duplicate_requirement",
      "rule_id": "adam-conformance-rules:sheet-Rules Catalogue_row-1603",
      "rule_type": "CONFORMANCE_RULE",
      "shard": "adam-conformance-rules.json",
      "source_section_classification": "OPERATIVE_RULE",
      "standard_id": "adam-conformance-rules"
    },
    {
      "citation_status": "RESOLVED",
      "decision": "REMOVE_NON_RELEVANT",
      "normalized_atomic_requirement": "TRTEMFL is not present",
      "reason": "semantic_duplicate_requirement",
      "rule_id": "adam-conformance-rules:sheet-Rules Catalogue_row-1604",
      "rule_type": "CONFORMANCE_RULE",
      "shard": "adam-conformance-rules.json",
      "source_section_classification": "OPERATIVE_RULE",
      "standard_id": "adam-conformance-rules"
    },
    {
      "citation_status": "RESOLVED",
      "decision": "REMOVE_NON_RELEVANT",
      "normalized_atomic_requirement": "AEOCCUR is present",
      "reason": "semantic_duplicate_requirement",
      "rule_id": "adam-conformance-rules:sheet-Rules Catalogue_row-1606",
      "rule_type": "CONFORMANCE_RULE",
      "shard": "adam-conformance-rules.json",
      "source_section_classification": "OPERATIVE_RULE",
      "standard_id": "adam-conformance-rules"
    },
    {
      "citation_status": "RESOLVED",
      "decision": "REMOVE_NON_RELEVANT",
      "normalized_atomic_requirement": "AEOCCUR is present",
      "reason": "semantic_duplicate_requirement",
      "rule_id": "adam-conformance-rules:sheet-Rules Catalogue_row-1607",
      "rule_type": "CONFORMANCE_RULE",
      "shard": "adam-conformance-rules.json",
      "source_section_classification": "OPERATIVE_RULE",
      "standard_id": "adam-conformance-rules"
    },
    {
      "citation_status": "RESOLVED",
      "decision": "REMOVE_NON_RELEVANT",
      "normalized_atomic_requirement": "AEOCCUR is present",
      "reason": "semantic_duplicate_requirement",
      "rule_id": "adam-conformance-rules:sheet-Rules Catalogue_row-1608",
      "rule_type": "CONFORMANCE_RULE",
      "shard": "adam-conformance-rules.json",
      "source_section_classification": "OPERATIVE_RULE",
      "standard_id": "adam-conformance-rules"
    },
    {
      "citation_status": "RESOLVED",
      "decision": "REMOVE_NON_RELEVANT",
      "normalized_atomic_requirement": "A variable with a suffix of TM and a variable with a suffix of DTM with the same root name have different time values",
      "reason": "semantic_duplicate_requirement",
      "rule_id": "adam-conformance-rules:sheet-Rules Catalogue_row-161",
      "rule_type": "CONFORMANCE_RULE",
      "shard": "adam-conformance-rules.json",
      "source_section_classification": "OPERATIVE_RULE",
      "standard_id": "adam-conformance-rules"
    },
    {
      "citation_status": "RESOLVED",
      "decision": "REMOVE_NON_RELEVANT",
      "normalized_atomic_requirement": "AESEQ is not present",
      "reason": "semantic_duplicate_requirement",
      "rule_id": "adam-conformance-rules:sheet-Rules Catalogue_row-1610",
      "rule_type": "CONFORMANCE_RULE",
      "shard": "adam-conformance-rules.json",
      "source_section_classification": "OPERATIVE_RULE",
      "standard_id": "adam-conformance-rules"
    },
    {
      "citation_status": "RESOLVED",
      "decision": "REMOVE_NON_RELEVANT",
      "normalized_atomic_requirement": "AESEQ is not present",
      "reason": "semantic_duplicate_requirement",
      "rule_id": "adam-conformance-rules:sheet-Rules Catalogue_row-1611",
      "rule_type": "CONFORMANCE_RULE",
      "shard": "adam-conformance-rules.json",
      "source_section_classification": "OPERATIVE_RULE",
      "standard_id": "adam-conformance-rules"
    },
    {
      "citation_status": "RESOLVED",
      "decision": "REMOVE_NON_RELEVANT",
      "normalized_atomic_requirement": "AESEQ is not present",
      "reason": "semantic_duplicate_requirement",
      "rule_id": "adam-conformance-rules:sheet-Rules Catalogue_row-1612",
      "rule_type": "CONFORMANCE_RULE",
      "shard": "adam-conformance-rules.json",
      "source_section_classification": "OPERATIVE_RULE",
      "standard_id": "adam-conformance-rules"
    },
    {
      "citation_status": "RESOLVED",
      "decision": "REMOVE_NON_RELEVANT",
      "normalized_atomic_requirement": "AELLT is not present",
      "reason": "semantic_duplicate_requirement",
      "rule_id": "adam-conformance-rules:sheet-Rules Catalogue_row-1614",
      "rule_type": "CONFORMANCE_RULE",
      "shard": "adam-conformance-rules.json",
      "source_section_classification": "OPERATIVE_RULE",
      "standard_id": "adam-conformance-rules"
    },
    {
      "citation_status": "RESOLVED",
      "decision": "REMOVE_NON_RELEVANT",
      "normalized_atomic_requirement": "AELLT is not present",
      "reason": "semantic_duplicate_requirement",
      "rule_id": "adam-conformance-rules:sheet-Rules Catalogue_row-1615",
      "rule_type": "CONFORMANCE_RULE",
      "shard": "adam-conformance-rules.json",
      "source_section_classification": "OPERATIVE_RULE",
      "standard_id": "adam-conformance-rules"
    },
    {
      "citation_status": "RESOLVED",
      "decision": "REMOVE_NON_RELEVANT",
      "normalized_atomic_requirement": "AELLT is not present",
      "reason": "semantic_duplicate_requirement",
      "rule_id": "adam-conformance-rules:sheet-Rules Catalogue_row-1616",
      "rule_type": "CONFORMANCE_RULE",
      "shard": "adam-conformance-rules.json",
      "source_section_classification": "OPERATIVE_RULE",
      "standard_id": "adam-conformance-rules"
    },
    {
      "citation_status": "RESOLVED",
      "decision": "REMOVE_NON_RELEVANT",
      "normalized_atomic_requirement": "AEBDSYCD is not present",
      "reason": "semantic_duplicate_requirement",
      "rule_id": "adam-conformance-rules:sheet-Rules Catalogue_row-1618",
      "rule_type": "CONFORMANCE_RULE",
      "shard": "adam-conformance-rules.json",
      "source_section_classification": "OPERATIVE_RULE",
      "standard_id": "adam-conformance-rules"
    },
    {
      "citation_status": "RESOLVED",
      "decision": "REMOVE_NON_RELEVANT",
      "normalized_atomic_requirement": "AEBDSYCD is not present",
      "reason": "semantic_duplicate_requirement",
      "rule_id": "adam-conformance-rules:sheet-Rules Catalogue_row-1619",
      "rule_type": "CONFORMANCE_RULE",
      "shard": "adam-conformance-rules.json",
      "source_section_classification": "OPERATIVE_RULE",
      "standard_id": "adam-conformance-rules"
    },
    {
      "citation_status": "RESOLVED",
      "decision": "REMOVE_NON_RELEVANT",
      "normalized_atomic_requirement": "A variable with a suffix of TM and a variable with a suffix of DTM with the same root name have different time values",
      "reason": "semantic_duplicate_requirement",
      "rule_id": "adam-conformance-rules:sheet-Rules Catalogue_row-162",
      "rule_type": "CONFORMANCE_RULE",
      "shard": "adam-conformance-rules.json",
      "source_section_classification": "OPERATIVE_RULE",
      "standard_id": "adam-conformance-rules"
    },
    {
      "citation_status": "RESOLVED",
      "decision": "REMOVE_NON_RELEVANT",
      "normalized_atomic_requirement": "AEBDSYCD is not present",
      "reason": "semantic_duplicate_requirement",
      "rule_id": "adam-conformance-rules:sheet-Rules Catalogue_row-1620",
      "rule_type": "CONFORMANCE_RULE",
      "shard": "adam-conformance-rules.json",
      "source_section_classification": "OPERATIVE_RULE",
      "standard_id": "adam-conformance-rules"
    },
    {
      "citation_status": "RESOLVED",
      "decision": "REMOVE_NON_RELEVANT",
      "normalized_atomic_requirement": "AELLTCD is not present",
      "reason": "semantic_duplicate_requirement",
      "rule_id": "adam-conformance-rules:sheet-Rules Catalogue_row-1622",
      "rule_type": "CONFORMANCE_RULE",
      "shard": "adam-conformance-rules.json",
      "source_section_classification": "OPERATIVE_RULE",
      "standard_id": "adam-conformance-rules"
    },
    {
      "citation_status": "RESOLVED",
      "decision": "REMOVE_NON_RELEVANT",
      "normalized_atomic_requirement": "AELLTCD is not present",
      "reason": "semantic_duplicate_requirement",
      "rule_id": "adam-conformance-rules:sheet-Rules Catalogue_row-1623",
      "rule_type": "CONFORMANCE_RULE",
      "shard": "adam-conformance-rules.json",
      "source_section_classification": "OPERATIVE_RULE",
      "standard_id": "adam-conformance-rules"
    },
    {
      "citation_status": "RESOLVED",
      "decision": "REMOVE_NON_RELEVANT",
      "normalized_atomic_requirement": "AELLTCD is not present",
      "reason": "semantic_duplicate_requirement",
      "rule_id": "adam-conformance-rules:sheet-Rules Catalogue_row-1624",
      "rule_type": "CONFORMANCE_RULE",
      "shard": "adam-conformance-rules.json",
      "source_section_classification": "OPERATIVE_RULE",
      "standard_id": "adam-conformance-rules"
    },
    {
      "citation_status": "RESOLVED",
      "decision": "REMOVE_NON_RELEVANT",
      "normalized_atomic_requirement": "AEHLT is not present",
      "reason": "semantic_duplicate_requirement",
      "rule_id": "adam-conformance-rules:sheet-Rules Catalogue_row-1626",
      "rule_type": "CONFORMANCE_RULE",
      "shard": "adam-conformance-rules.json",
      "source_section_classification": "OPERATIVE_RULE",
      "standard_id": "adam-conformance-rules"
    },
    {
      "citation_status": "RESOLVED",
      "decision": "REMOVE_NON_RELEVANT",
      "normalized_atomic_requirement": "AEHLT is not present",
      "reason": "semantic_duplicate_requirement",
      "rule_id": "adam-conformance-rules:sheet-Rules Catalogue_row-1627",
      "rule_type": "CONFORMANCE_RULE",
      "shard": "adam-conformance-rules.json",
      "source_section_classification": "OPERATIVE_RULE",
      "standard_id": "adam-conformance-rules"
    },
    {
      "citation_status": "RESOLVED",
      "decision": "REMOVE_NON_RELEVANT",
      "normalized_atomic_requirement": "AEHLT is not present",
      "reason": "semantic_duplicate_requirement",
      "rule_id": "adam-conformance-rules:sheet-Rules Catalogue_row-1628",
      "rule_type": "CONFORMANCE_RULE",
      "shard": "adam-conformance-rules.json",
      "source_section_classification": "OPERATIVE_RULE",
      "standard_id": "adam-conformance-rules"
    },
    {
      "citation_status": "RESOLVED",
      "decision": "REMOVE_NON_RELEVANT",
      "normalized_atomic_requirement": "AEHLTCD is not present",
      "reason": "semantic_duplicate_requirement",
      "rule_id": "adam-conformance-rules:sheet-Rules Catalogue_row-1630",
      "rule_type": "CONFORMANCE_RULE",
      "shard": "adam-conformance-rules.json",
      "source_section_classification": "OPERATIVE_RULE",
      "standard_id": "adam-conformance-rules"
    },
    {
      "citation_status": "RESOLVED",
      "decision": "REMOVE_NON_RELEVANT",
      "normalized_atomic_requirement": "AEHLTCD is not present",
      "reason": "semantic_duplicate_requirement",
      "rule_id": "adam-conformance-rules:sheet-Rules Catalogue_row-1631",
      "rule_type": "CONFORMANCE_RULE",
      "shard": "adam-conformance-rules.json",
      "source_section_classification": "OPERATIVE_RULE",
      "standard_id": "adam-conformance-rules"
    },
    {
      "citation_status": "RESOLVED",
      "decision": "REMOVE_NON_RELEVANT",
      "normalized_atomic_requirement": "AEHLTCD is not present",
      "reason": "semantic_duplicate_requirement",
      "rule_id": "adam-conformance-rules:sheet-Rules Catalogue_row-1632",
      "rule_type": "CONFORMANCE_RULE",
      "shard": "adam-conformance-rules.json",
      "source_section_classification": "OPERATIVE_RULE",
      "standard_id": "adam-conformance-rules"
    },
    {
      "citation_status": "RESOLVED",
      "decision": "REMOVE_NON_RELEVANT",
      "normalized_atomic_requirement": "AEHLGT is not present",
      "reason": "semantic_duplicate_requirement",
      "rule_id": "adam-conformance-rules:sheet-Rules Catalogue_row-1634",
      "rule_type": "CONFORMANCE_RULE",
      "shard": "adam-conformance-rules.json",
      "source_section_classification": "OPERATIVE_RULE",
      "standard_id": "adam-conformance-rules"
    },
    {
      "citation_status": "RESOLVED",
      "decision": "REMOVE_NON_RELEVANT",
      "normalized_atomic_requirement": "AEHLGT is not present",
      "reason": "semantic_duplicate_requirement",
      "rule_id": "adam-conformance-rules:sheet-Rules Catalogue_row-1635",
      "rule_type": "CONFORMANCE_RULE",
      "shard": "adam-conformance-rules.json",
      "source_section_classification": "OPERATIVE_RULE",
      "standard_id": "adam-conformance-rules"
    },
    {
      "citation_status": "RESOLVED",
      "decision": "REMOVE_NON_RELEVANT",
      "normalized_atomic_requirement": "AEHLGT is not present",
      "reason": "semantic_duplicate_requirement",
      "rule_id": "adam-conformance-rules:sheet-Rules Catalogue_row-1636",
      "rule_type": "CONFORMANCE_RULE",
      "shard": "adam-conformance-rules.json",
      "source_section_classification": "OPERATIVE_RULE",
      "standard_id": "adam-conformance-rules"
    },
    {
      "citation_status": "RESOLVED",
      "decision": "REMOVE_NON_RELEVANT",
      "normalized_atomic_requirement": "AEHLGTCD is not present",
      "reason": "semantic_duplicate_requirement",
      "rule_id": "adam-conformance-rules:sheet-Rules Catalogue_row-1638",
      "rule_type": "CONFORMANCE_RULE",
      "shard": "adam-conformance-rules.json",
      "source_section_classification": "OPERATIVE_RULE",
      "standard_id": "adam-conformance-rules"
    },
    {
      "citation_status": "RESOLVED",
      "decision": "REMOVE_NON_RELEVANT",
      "normalized_atomic_requirement": "AEHLGTCD is not present",
      "reason": "semantic_duplicate_requirement",
      "rule_id": "adam-conformance-rules:sheet-Rules Catalogue_row-1639",
      "rule_type": "CONFORMANCE_RULE",
      "shard": "adam-conformance-rules.json",
      "source_section_classification": "OPERATIVE_RULE",
      "standard_id": "adam-conformance-rules"
    },
    {
      "citation_status": "RESOLVED",
      "decision": "REMOVE_NON_RELEVANT",
      "normalized_atomic_requirement": "A variable with a suffix of DT and a variable with a suffix of DTM with the same root name have different date values",
      "reason": "semantic_duplicate_requirement",
      "rule_id": "adam-conformance-rules:sheet-Rules Catalogue_row-164",
      "rule_type": "CONFORMANCE_RULE",
      "shard": "adam-conformance-rules.json",
      "source_section_classification": "OPERATIVE_RULE",
      "standard_id": "adam-conformance-rules"
    },
    {
      "citation_status": "RESOLVED",
      "decision": "REMOVE_NON_RELEVANT",
      "normalized_atomic_requirement": "AEHLGTCD is not present",
      "reason": "semantic_duplicate_requirement",
      "rule_id": "adam-conformance-rules:sheet-Rules Catalogue_row-1640",
      "rule_type": "CONFORMANCE_RULE",
      "shard": "adam-conformance-rules.json",
      "source_section_classification": "OPERATIVE_RULE",
      "standard_id": "adam-conformance-rules"
    },
    {
      "citation_status": "RESOLVED",
      "decision": "REMOVE_NON_RELEVANT",
      "normalized_atomic_requirement": "AEPTCD is not present",
      "reason": "semantic_duplicate_requirement",
      "rule_id": "adam-conformance-rules:sheet-Rules Catalogue_row-1642",
      "rule_type": "CONFORMANCE_RULE",
      "shard": "adam-conformance-rules.json",
      "source_section_classification": "OPERATIVE_RULE",
      "standard_id": "adam-conformance-rules"
    },
    {
      "citation_status": "RESOLVED",
      "decision": "REMOVE_NON_RELEVANT",
      "normalized_atomic_requirement": "AEPTCD is not present",
      "reason": "semantic_duplicate_requirement",
      "rule_id": "adam-conformance-rules:sheet-Rules Catalogue_row-1643",
      "rule_type": "CONFORMANCE_RULE",
      "shard": "adam-conformance-rules.json",
      "source_section_classification": "OPERATIVE_RULE",
      "standard_id": "adam-conformance-rules"
    },
    {
      "citation_status": "RESOLVED",
      "decision": "REMOVE_NON_RELEVANT",
      "normalized_atomic_requirement": "AEPTCD is not present",
      "reason": "semantic_duplicate_requirement",
      "rule_id": "adam-conformance-rules:sheet-Rules Catalogue_row-1644",
      "rule_type": "CONFORMANCE_RULE",
      "shard": "adam-conformance-rules.json",
      "source_section_classification": "OPERATIVE_RULE",
      "standard_id": "adam-conformance-rules"
    },
    {
      "citation_status": "RESOLVED",
      "decision": "REMOVE_NON_RELEVANT",
      "normalized_atomic_requirement": "AESOC is not present",
      "reason": "semantic_duplicate_requirement",
      "rule_id": "adam-conformance-rules:sheet-Rules Catalogue_row-1646",
      "rule_type": "CONFORMANCE_RULE",
      "shard": "adam-conformance-rules.json",
      "source_section_classification": "OPERATIVE_RULE",
      "standard_id": "adam-conformance-rules"
    },
    {
      "citation_status": "RESOLVED",
      "decision": "REMOVE_NON_RELEVANT",
      "normalized_atomic_requirement": "AESOC is not present",
      "reason": "semantic_duplicate_requirement",
      "rule_id": "adam-conformance-rules:sheet-Rules Catalogue_row-1647",
      "rule_type": "CONFORMANCE_RULE",
      "shard": "adam-conformance-rules.json",
      "source_section_classification": "OPERATIVE_RULE",
      "standard_id": "adam-conformance-rules"
    },
    {
      "citation_status": "RESOLVED",
      "decision": "REMOVE_NON_RELEVANT",
      "normalized_atomic_requirement": "AESOC is not present",
      "reason": "semantic_duplicate_requirement",
      "rule_id": "adam-conformance-rules:sheet-Rules Catalogue_row-1648",
      "rule_type": "CONFORMANCE_RULE",
      "shard": "adam-conformance-rules.json",
      "source_section_classification": "OPERATIVE_RULE",
      "standard_id": "adam-conformance-rules"
    },
    {
      "citation_status": "RESOLVED",
      "decision": "REMOVE_NON_RELEVANT",
      "normalized_atomic_requirement": "A variable with a suffix of DT and a variable with a suffix of DTM with the same root name have different date values",
      "reason": "semantic_duplicate_requirement",
      "rule_id": "adam-conformance-rules:sheet-Rules Catalogue_row-165",
      "rule_type": "CONFORMANCE_RULE",
      "shard": "adam-conformance-rules.json",
      "source_section_classification": "OPERATIVE_RULE",
      "standard_id": "adam-conformance-rules"
    },
    {
      "citation_status": "RESOLVED",
      "decision": "REMOVE_NON_RELEVANT",
      "normalized_atomic_requirement": "AESOCCD is not present",
      "reason": "semantic_duplicate_requirement",
      "rule_id": "adam-conformance-rules:sheet-Rules Catalogue_row-1650",
      "rule_type": "CONFORMANCE_RULE",
      "shard": "adam-conformance-rules.json",
      "source_section_classification": "OPERATIVE_RULE",
      "standard_id": "adam-conformance-rules"
    },
    {
      "citation_status": "RESOLVED",
      "decision": "REMOVE_NON_RELEVANT",
      "normalized_atomic_requirement": "AESOCCD is not present",
      "reason": "semantic_duplicate_requirement",
      "rule_id": "adam-conformance-rules:sheet-Rules Catalogue_row-1651",
      "rule_type": "CONFORMANCE_RULE",
      "shard": "adam-conformance-rules.json",
      "source_section_classification": "OPERATIVE_RULE",
      "standard_id": "adam-conformance-rules"
    },
    {
      "citation_status": "RESOLVED",
      "decision": "REMOVE_NON_RELEVANT",
      "normalized_atomic_requirement": "AESOCCD is not present",
      "reason": "semantic_duplicate_requirement",
      "rule_id": "adam-conformance-rules:sheet-Rules Catalogue_row-1652",
      "rule_type": "CONFORMANCE_RULE",
      "shard": "adam-conformance-rules.json",
      "source_section_classification": "OPERATIVE_RULE",
      "standard_id": "adam-conformance-rules"
    },
    {
      "citation_status": "RESOLVED",
      "decision": "REMOVE_NON_RELEVANT",
      "normalized_atomic_requirement": "AESTDTC is not present",
      "reason": "semantic_duplicate_requirement",
      "rule_id": "adam-conformance-rules:sheet-Rules Catalogue_row-1654",
      "rule_type": "CONFORMANCE_RULE",
      "shard": "adam-conformance-rules.json",
      "source_section_classification": "OPERATIVE_RULE",
      "standard_id": "adam-conformance-rules"
    },
    {
      "citation_status": "RESOLVED",
      "decision": "REMOVE_NON_RELEVANT",
      "normalized_atomic_requirement": "AESTDTC is not present",
      "reason": "semantic_duplicate_requirement",
      "rule_id": "adam-conformance-rules:sheet-Rules Catalogue_row-1655",
      "rule_type": "CONFORMANCE_RULE",
      "shard": "adam-conformance-rules.json",
      "source_section_classification": "OPERATIVE_RULE",
      "standard_id": "adam-conformance-rules"
    },
    {
      "citation_status": "RESOLVED",
      "decision": "REMOVE_NON_RELEVANT",
      "normalized_atomic_requirement": "AESTDTC is not present",
      "reason": "semantic_duplicate_requirement",
      "rule_id": "adam-conformance-rules:sheet-Rules Catalogue_row-1656",
      "rule_type": "CONFORMANCE_RULE",
      "shard": "adam-conformance-rules.json",
      "source_section_classification": "OPERATIVE_RULE",
      "standard_id": "adam-conformance-rules"
    },
    {
      "citation_status": "RESOLVED",
      "decision": "REMOVE_NON_RELEVANT",
      "normalized_atomic_requirement": "ASTDT is not present",
      "reason": "semantic_duplicate_requirement",
      "rule_id": "adam-conformance-rules:sheet-Rules Catalogue_row-1658",
      "rule_type": "CONFORMANCE_RULE",
      "shard": "adam-conformance-rules.json",
      "source_section_classification": "OPERATIVE_RULE",
      "standard_id": "adam-conformance-rules"
    },
    {
      "citation_status": "RESOLVED",
      "decision": "REMOVE_NON_RELEVANT",
      "normalized_atomic_requirement": "ASTDT is not present",
      "reason": "semantic_duplicate_requirement",
      "rule_id": "adam-conformance-rules:sheet-Rules Catalogue_row-1659",
      "rule_type": "CONFORMANCE_RULE",
      "shard": "adam-conformance-rules.json",
      "source_section_classification": "OPERATIVE_RULE",
      "standard_id": "adam-conformance-rules"
    },
    {
      "citation_status": "RESOLVED",
      "decision": "REMOVE_NON_RELEVANT",
      "normalized_atomic_requirement": "A variable with a suffix of DT and a variable with a suffix of DTM with the same root name have different date values",
      "reason": "semantic_duplicate_requirement",
      "rule_id": "adam-conformance-rules:sheet-Rules Catalogue_row-166",
      "rule_type": "CONFORMANCE_RULE",
      "shard": "adam-conformance-rules.json",
      "source_section_classification": "OPERATIVE_RULE",
      "standard_id": "adam-conformance-rules"
    },
    {
      "citation_status": "RESOLVED",
      "decision": "REMOVE_NON_RELEVANT",
      "normalized_atomic_requirement": "ASTDT is not present",
      "reason": "semantic_duplicate_requirement",
      "rule_id": "adam-conformance-rules:sheet-Rules Catalogue_row-1660",
      "rule_type": "CONFORMANCE_RULE",
      "shard": "adam-conformance-rules.json",
      "source_section_classification": "OPERATIVE_RULE",
      "standard_id": "adam-conformance-rules"
    },
    {
      "citation_status": "RESOLVED",
      "decision": "REMOVE_NON_RELEVANT",
      "normalized_atomic_requirement": "AEENDTC is not present",
      "reason": "semantic_duplicate_requirement",
      "rule_id": "adam-conformance-rules:sheet-Rules Catalogue_row-1662",
      "rule_type": "CONFORMANCE_RULE",
      "shard": "adam-conformance-rules.json",
      "source_section_classification": "OPERATIVE_RULE",
      "standard_id": "adam-conformance-rules"
    },
    {
      "citation_status": "RESOLVED",
      "decision": "REMOVE_NON_RELEVANT",
      "normalized_atomic_requirement": "AEENDTC is not present",
      "reason": "semantic_duplicate_requirement",
      "rule_id": "adam-conformance-rules:sheet-Rules Catalogue_row-1663",
      "rule_type": "CONFORMANCE_RULE",
      "shard": "adam-conformance-rules.json",
      "source_section_classification": "OPERATIVE_RULE",
      "standard_id": "adam-conformance-rules"
    },
    {
      "citation_status": "RESOLVED",
      "decision": "REMOVE_NON_RELEVANT",
      "normalized_atomic_requirement": "AEENDTC is not present",
      "reason": "semantic_duplicate_requirement",
      "rule_id": "adam-conformance-rules:sheet-Rules Catalogue_row-1664",
      "rule_type": "CONFORMANCE_RULE",
      "shard": "adam-conformance-rules.json",
      "source_section_classification": "OPERATIVE_RULE",
      "standard_id": "adam-conformance-rules"
    },
    {
      "citation_status": "RESOLVED",
      "decision": "REMOVE_NON_RELEVANT",
      "normalized_atomic_requirement": "AENDT is not present",
      "reason": "semantic_duplicate_requirement",
      "rule_id": "adam-conformance-rules:sheet-Rules Catalogue_row-1666",
      "rule_type": "CONFORMANCE_RULE",
      "shard": "adam-conformance-rules.json",
      "source_section_classification": "OPERATIVE_RULE",
      "standard_id": "adam-conformance-rules"
    },
    {
      "citation_status": "RESOLVED",
      "decision": "REMOVE_NON_RELEVANT",
      "normalized_atomic_requirement": "AENDT is not present",
      "reason": "semantic_duplicate_requirement",
      "rule_id": "adam-conformance-rules:sheet-Rules Catalogue_row-1667",
      "rule_type": "CONFORMANCE_RULE",
      "shard": "adam-conformance-rules.json",
      "source_section_classification": "OPERATIVE_RULE",
      "standard_id": "adam-conformance-rules"
    },
    {
      "citation_status": "RESOLVED",
      "decision": "REMOVE_NON_RELEVANT",
      "normalized_atomic_requirement": "AENDT is not present",
      "reason": "semantic_duplicate_requirement",
      "rule_id": "adam-conformance-rules:sheet-Rules Catalogue_row-1668",
      "rule_type": "CONFORMANCE_RULE",
      "shard": "adam-conformance-rules.json",
      "source_section_classification": "OPERATIVE_RULE",
      "standard_id": "adam-conformance-rules"
    },
    {
      "citation_status": "RESOLVED",
      "decision": "REMOVE_NON_RELEVANT",
      "normalized_atomic_requirement": "ASTDY is not present",
      "reason": "semantic_duplicate_requirement",
      "rule_id": "adam-conformance-rules:sheet-Rules Catalogue_row-1670",
      "rule_type": "CONFORMANCE_RULE",
      "shard": "adam-conformance-rules.json",
      "source_section_classification": "OPERATIVE_RULE",
      "standard_id": "adam-conformance-rules"
    },
    {
      "citation_status": "RESOLVED",
      "decision": "REMOVE_NON_RELEVANT",
      "normalized_atomic_requirement": "ASTDY is not present",
      "reason": "semantic_duplicate_requirement",
      "rule_id": "adam-conformance-rules:sheet-Rules Catalogue_row-1671",
      "rule_type": "CONFORMANCE_RULE",
      "shard": "adam-conformance-rules.json",
      "source_section_classification": "OPERATIVE_RULE",
      "standard_id": "adam-conformance-rules"
    },
    {
      "citation_status": "RESOLVED",
      "decision": "REMOVE_NON_RELEVANT",
      "normalized_atomic_requirement": "ASTDY is not present",
      "reason": "semantic_duplicate_requirement",
      "rule_id": "adam-conformance-rules:sheet-Rules Catalogue_row-1672",
      "rule_type": "CONFORMANCE_RULE",
      "shard": "adam-conformance-rules.json",
      "source_section_classification": "OPERATIVE_RULE",
      "standard_id": "adam-conformance-rules"
    },
    {
      "citation_status": "RESOLVED",
      "decision": "REMOVE_NON_RELEVANT",
      "normalized_atomic_requirement": "AENDY is not present",
      "reason": "semantic_duplicate_requirement",
      "rule_id": "adam-conformance-rules:sheet-Rules Catalogue_row-1674",
      "rule_type": "CONFORMANCE_RULE",
      "shard": "adam-conformance-rules.json",
      "source_section_classification": "OPERATIVE_RULE",
      "standard_id": "adam-conformance-rules"
    },
    {
      "citation_status": "RESOLVED",
      "decision": "REMOVE_NON_RELEVANT",
      "normalized_atomic_requirement": "AENDY is not present",
      "reason": "semantic_duplicate_requirement",
      "rule_id": "adam-conformance-rules:sheet-Rules Catalogue_row-1675",
      "rule_type": "CONFORMANCE_RULE",
      "shard": "adam-conformance-rules.json",
      "source_section_classification": "OPERATIVE_RULE",
      "standard_id": "adam-conformance-rules"
    },
    {
      "citation_status": "RESOLVED",
      "decision": "REMOVE_NON_RELEVANT",
      "normalized_atomic_requirement": "AENDY is not present",
      "reason": "semantic_duplicate_requirement",
      "rule_id": "adam-conformance-rules:sheet-Rules Catalogue_row-1676",
      "rule_type": "CONFORMANCE_RULE",
      "shard": "adam-conformance-rules.json",
      "source_section_classification": "OPERATIVE_RULE",
      "standard_id": "adam-conformance-rules"
    },
    {
      "citation_status": "RESOLVED",
      "decision": "REMOVE_NON_RELEVANT",
      "normalized_atomic_requirement": "SUPPAE.QNAM=AETRTEM is present but AETRTEM is not present",
      "reason": "semantic_duplicate_requirement",
      "rule_id": "adam-conformance-rules:sheet-Rules Catalogue_row-1678",
      "rule_type": "CONFORMANCE_RULE",
      "shard": "adam-conformance-rules.json",
      "source_section_classification": "OPERATIVE_RULE",
      "standard_id": "adam-conformance-rules"
    },
    {
      "citation_status": "RESOLVED",
      "decision": "REMOVE_NON_RELEVANT",
      "normalized_atomic_requirement": "SUPPAE.QNAM=AETRTEM is present but AETRTEM is not present",
      "reason": "semantic_duplicate_requirement",
      "rule_id": "adam-conformance-rules:sheet-Rules Catalogue_row-1679",
      "rule_type": "CONFORMANCE_RULE",
      "shard": "adam-conformance-rules.json",
      "source_section_classification": "OPERATIVE_RULE",
      "standard_id": "adam-conformance-rules"
    },
    {
      "citation_status": "RESOLVED",
      "decision": "REMOVE_NON_RELEVANT",
      "normalized_atomic_requirement": "A variable with a suffix of DY has a value of zero",
      "reason": "semantic_duplicate_requirement",
      "rule_id": "adam-conformance-rules:sheet-Rules Catalogue_row-168",
      "rule_type": "CONFORMANCE_RULE",
      "shard": "adam-conformance-rules.json",
      "source_section_classification": "OPERATIVE_RULE",
      "standard_id": "adam-conformance-rules"
    },
    {
      "citation_status": "RESOLVED",
      "decision": "REMOVE_NON_RELEVANT",
      "normalized_atomic_requirement": "SUPPAE.QNAM=AETRTEM is present but AETRTEM is not present",
      "reason": "semantic_duplicate_requirement",
      "rule_id": "adam-conformance-rules:sheet-Rules Catalogue_row-1680",
      "rule_type": "CONFORMANCE_RULE",
      "shard": "adam-conformance-rules.json",
      "source_section_classification": "OPERATIVE_RULE",
      "standard_id": "adam-conformance-rules"
    },
    {
      "citation_status": "RESOLVED",
      "decision": "REMOVE_NON_RELEVANT",
      "normalized_atomic_requirement": "AE.AESTDY is present but AESTDY is not present",
      "reason": "semantic_duplicate_requirement",
      "rule_id": "adam-conformance-rules:sheet-Rules Catalogue_row-1682",
      "rule_type": "CONFORMANCE_RULE",
      "shard": "adam-conformance-rules.json",
      "source_section_classification": "OPERATIVE_RULE",
      "standard_id": "adam-conformance-rules"
    },
    {
      "citation_status": "RESOLVED",
      "decision": "REMOVE_NON_RELEVANT",
      "normalized_atomic_requirement": "AE.AESTDY is present but AESTDY is not present",
      "reason": "semantic_duplicate_requirement",
      "rule_id": "adam-conformance-rules:sheet-Rules Catalogue_row-1683",
      "rule_type": "CONFORMANCE_RULE",
      "shard": "adam-conformance-rules.json",
      "source_section_classification": "OPERATIVE_RULE",
      "standard_id": "adam-conformance-rules"
    },
    {
      "citation_status": "RESOLVED",
      "decision": "REMOVE_NON_RELEVANT",
      "normalized_atomic_requirement": "AE.AESTDY is present but AESTDY is not present",
      "reason": "semantic_duplicate_requirement",
      "rule_id": "adam-conformance-rules:sheet-Rules Catalogue_row-1684",
      "rule_type": "CONFORMANCE_RULE",
      "shard": "adam-conformance-rules.json",
      "source_section_classification": "OPERATIVE_RULE",
      "standard_id": "adam-conformance-rules"
    },
    {
      "citation_status": "RESOLVED",
      "decision": "REMOVE_NON_RELEVANT",
      "normalized_atomic_requirement": "AE.AEENDY is present but AEENDY is not present",
      "reason": "semantic_duplicate_requirement",
      "rule_id": "adam-conformance-rules:sheet-Rules Catalogue_row-1686",
      "rule_type": "CONFORMANCE_RULE",
      "shard": "adam-conformance-rules.json",
      "source_section_classification": "OPERATIVE_RULE",
      "standard_id": "adam-conformance-rules"
    },
    {
      "citation_status": "RESOLVED",
      "decision": "REMOVE_NON_RELEVANT",
      "normalized_atomic_requirement": "AE.AEENDY is present but AEENDY is not present",
      "reason": "semantic_duplicate_requirement",
      "rule_id": "adam-conformance-rules:sheet-Rules Catalogue_row-1687",
      "rule_type": "CONFORMANCE_RULE",
      "shard": "adam-conformance-rules.json",
      "source_section_classification": "OPERATIVE_RULE",
      "standard_id": "adam-conformance-rules"
    },
    {
      "citation_status": "RESOLVED",
      "decision": "REMOVE_NON_RELEVANT",
      "normalized_atomic_requirement": "AE.AEENDY is present but AEENDY is not present",
      "reason": "semantic_duplicate_requirement",
      "rule_id": "adam-conformance-rules:sheet-Rules Catalogue_row-1688",
      "rule_type": "CONFORMANCE_RULE",
      "shard": "adam-conformance-rules.json",
      "source_section_classification": "OPERATIVE_RULE",
      "standard_id": "adam-conformance-rules"
    },
    {
      "citation_status": "RESOLVED",
      "decision": "REMOVE_NON_RELEVANT",
      "normalized_atomic_requirement": "A variable with a suffix of DY has a value of zero",
      "reason": "semantic_duplicate_requirement",
      "rule_id": "adam-conformance-rules:sheet-Rules Catalogue_row-169",
      "rule_type": "CONFORMANCE_RULE",
      "shard": "adam-conformance-rules.json",
      "source_section_classification": "OPERATIVE_RULE",
      "standard_id": "adam-conformance-rules"
    },
    {
      "citation_status": "RESOLVED",
      "decision": "REMOVE_NON_RELEVANT",
      "normalized_atomic_requirement": "AE.AEDUR is present but AEDUR is not present",
      "reason": "semantic_duplicate_requirement",
      "rule_id": "adam-conformance-rules:sheet-Rules Catalogue_row-1690",
      "rule_type": "CONFORMANCE_RULE",
      "shard": "adam-conformance-rules.json",
      "source_section_classification": "OPERATIVE_RULE",
      "standard_id": "adam-conformance-rules"
    },
    {
      "citation_status": "RESOLVED",
      "decision": "REMOVE_NON_RELEVANT",
      "normalized_atomic_requirement": "AE.AEDUR is present but AEDUR is not present",
      "reason": "semantic_duplicate_requirement",
      "rule_id": "adam-conformance-rules:sheet-Rules Catalogue_row-1691",
      "rule_type": "CONFORMANCE_RULE",
      "shard": "adam-conformance-rules.json",
      "source_section_classification": "OPERATIVE_RULE",
      "standard_id": "adam-conformance-rules"
    },
    {
      "citation_status": "RESOLVED",
      "decision": "REMOVE_NON_RELEVANT",
      "normalized_atomic_requirement": "AE.AEDUR is present but AEDUR is not present",
      "reason": "semantic_duplicate_requirement",
      "rule_id": "adam-conformance-rules:sheet-Rules Catalogue_row-1692",
      "rule_type": "CONFORMANCE_RULE",
      "shard": "adam-conformance-rules.json",
      "source_section_classification": "OPERATIVE_RULE",
      "standard_id": "adam-conformance-rules"
    },
    {
      "citation_status": "RESOLVED",
      "decision": "REMOVE_NON_RELEVANT",
      "normalized_atomic_requirement": "AE.AESEV is present but AESEV is not present",
      "reason": "semantic_duplicate_requirement",
      "rule_id": "adam-conformance-rules:sheet-Rules Catalogue_row-1694",
      "rule_type": "CONFORMANCE_RULE",
      "shard": "adam-conformance-rules.json",
      "source_section_classification": "OPERATIVE_RULE",
      "standard_id": "adam-conformance-rules"
    },
    {
      "citation_status": "RESOLVED",
      "decision": "REMOVE_NON_RELEVANT",
      "normalized_atomic_requirement": "AE.AESEV is present but AESEV is not present",
      "reason": "semantic_duplicate_requirement",
      "rule_id": "adam-conformance-rules:sheet-Rules Catalogue_row-1695",
      "rule_type": "CONFORMANCE_RULE",
      "shard": "adam-conformance-rules.json",
      "source_section_classification": "OPERATIVE_RULE",
      "standard_id": "adam-conformance-rules"
    },
    {
      "citation_status": "RESOLVED",
      "decision": "REMOVE_NON_RELEVANT",
      "normalized_atomic_requirement": "AE.AESEV is present but AESEV is not present",
      "reason": "semantic_duplicate_requirement",
      "rule_id": "adam-conformance-rules:sheet-Rules Catalogue_row-1696",
      "rule_type": "CONFORMANCE_RULE",
      "shard": "adam-conformance-rules.json",
      "source_section_classification": "OPERATIVE_RULE",
      "standard_id": "adam-conformance-rules"
    },
    {
      "citation_status": "RESOLVED",
      "decision": "REMOVE_NON_RELEVANT",
      "normalized_atomic_requirement": "AE.AETOXGR is present but AETOXGR is not present",
      "reason": "semantic_duplicate_requirement",
      "rule_id": "adam-conformance-rules:sheet-Rules Catalogue_row-1698",
      "rule_type": "CONFORMANCE_RULE",
      "shard": "adam-conformance-rules.json",
      "source_section_classification": "OPERATIVE_RULE",
      "standard_id": "adam-conformance-rules"
    },
    {
      "citation_status": "RESOLVED",
      "decision": "REMOVE_NON_RELEVANT",
      "normalized_atomic_requirement": "AE.AETOXGR is present but AETOXGR is not present",
      "reason": "semantic_duplicate_requirement",
      "rule_id": "adam-conformance-rules:sheet-Rules Catalogue_row-1699",
      "rule_type": "CONFORMANCE_RULE",
      "shard": "adam-conformance-rules.json",
      "source_section_classification": "OPERATIVE_RULE",
      "standard_id": "adam-conformance-rules"
    },
    {
      "citation_status": "RESOLVED",
      "decision": "REMOVE_NON_RELEVANT",
      "normalized_atomic_requirement": "A variable with a suffix of FL is present and a variable with the same root and a suffix of FN has a value that is not 0, 1 or null",
      "reason": "semantic_duplicate_requirement",
      "rule_id": "adam-conformance-rules:sheet-Rules Catalogue_row-17",
      "rule_type": "CONFORMANCE_RULE",
      "shard": "adam-conformance-rules.json",
      "source_section_classification": "OPERATIVE_RULE",
      "standard_id": "adam-conformance-rules"
    },
    {
      "citation_status": "RESOLVED",
      "decision": "REMOVE_NON_RELEVANT",
      "normalized_atomic_requirement": "A variable with a suffix of DY has a value of zero",
      "reason": "semantic_duplicate_requirement",
      "rule_id": "adam-conformance-rules:sheet-Rules Catalogue_row-170",
      "rule_type": "CONFORMANCE_RULE",
      "shard": "adam-conformance-rules.json",
      "source_section_classification": "OPERATIVE_RULE",
      "standard_id": "adam-conformance-rules"
    },
    {
      "citation_status": "RESOLVED",
      "decision": "REMOVE_NON_RELEVANT",
      "normalized_atomic_requirement": "AE.AETOXGR is present but AETOXGR is not present",
      "reason": "semantic_duplicate_requirement",
      "rule_id": "adam-conformance-rules:sheet-Rules Catalogue_row-1700",
      "rule_type": "CONFORMANCE_RULE",
      "shard": "adam-conformance-rules.json",
      "source_section_classification": "OPERATIVE_RULE",
      "standard_id": "adam-conformance-rules"
    },
    {
      "citation_status": "RESOLVED",
      "decision": "REMOVE_NON_RELEVANT",
      "normalized_atomic_requirement": "AE.AEACN is present and populated on at least one record but AEACN is not present",
      "reason": "semantic_duplicate_requirement",
      "rule_id": "adam-conformance-rules:sheet-Rules Catalogue_row-1702",
      "rule_type": "CONFORMANCE_RULE",
      "shard": "adam-conformance-rules.json",
      "source_section_classification": "OPERATIVE_RULE",
      "standard_id": "adam-conformance-rules"
    },
    {
      "citation_status": "RESOLVED",
      "decision": "REMOVE_NON_RELEVANT",
      "normalized_atomic_requirement": "AE.AEACN is present and populated on at least one record but AEACN is not present",
      "reason": "semantic_duplicate_requirement",
      "rule_id": "adam-conformance-rules:sheet-Rules Catalogue_row-1703",
      "rule_type": "CONFORMANCE_RULE",
      "shard": "adam-conformance-rules.json",
      "source_section_classification": "OPERATIVE_RULE",
      "standard_id": "adam-conformance-rules"
    },
    {
      "citation_status": "RESOLVED",
      "decision": "REMOVE_NON_RELEVANT",
      "normalized_atomic_requirement": "AE.AEACN is present and populated on at least one record but AEACN is not present",
      "reason": "semantic_duplicate_requirement",
      "rule_id": "adam-conformance-rules:sheet-Rules Catalogue_row-1704",
      "rule_type": "CONFORMANCE_RULE",
      "shard": "adam-conformance-rules.json",
      "source_section_classification": "OPERATIVE_RULE",
      "standard_id": "adam-conformance-rules"
    },
    {
      "citation_status": "RESOLVED",
      "decision": "REMOVE_NON_RELEVANT",
      "normalized_atomic_requirement": "TREMxxFL is Y but TRTEMFL is not Y",
      "reason": "semantic_duplicate_requirement",
      "rule_id": "adam-conformance-rules:sheet-Rules Catalogue_row-1706",
      "rule_type": "CONFORMANCE_RULE",
      "shard": "adam-conformance-rules.json",
      "source_section_classification": "OPERATIVE_RULE",
      "standard_id": "adam-conformance-rules"
    },
    {
      "citation_status": "RESOLVED",
      "decision": "REMOVE_NON_RELEVANT",
      "normalized_atomic_requirement": "TREMxxFL is Y but TRTEMFL is not Y",
      "reason": "semantic_duplicate_requirement",
      "rule_id": "adam-conformance-rules:sheet-Rules Catalogue_row-1707",
      "rule_type": "CONFORMANCE_RULE",
      "shard": "adam-conformance-rules.json",
      "source_section_classification": "OPERATIVE_RULE",
      "standard_id": "adam-conformance-rules"
    },
    {
      "citation_status": "RESOLVED",
      "decision": "REMOVE_NON_RELEVANT",
      "normalized_atomic_requirement": "TRTEMwFL is Y but TRTEMFL is not Y",
      "reason": "semantic_duplicate_requirement",
      "rule_id": "adam-conformance-rules:sheet-Rules Catalogue_row-1710",
      "rule_type": "CONFORMANCE_RULE",
      "shard": "adam-conformance-rules.json",
      "source_section_classification": "OPERATIVE_RULE",
      "standard_id": "adam-conformance-rules"
    },
    {
      "citation_status": "RESOLVED",
      "decision": "REMOVE_NON_RELEVANT",
      "normalized_atomic_requirement": "TRTEMwFL is Y but TRTEMFL is not Y",
      "reason": "semantic_duplicate_requirement",
      "rule_id": "adam-conformance-rules:sheet-Rules Catalogue_row-1711",
      "rule_type": "CONFORMANCE_RULE",
      "shard": "adam-conformance-rules.json",
      "source_section_classification": "OPERATIVE_RULE",
      "standard_id": "adam-conformance-rules"
    },
    {
      "citation_status": "RESOLVED",
      "decision": "REMOVE_NON_RELEVANT",
      "normalized_atomic_requirement": "ONTRxxFL is Y but ONTRTFL is not Y",
      "reason": "semantic_duplicate_requirement",
      "rule_id": "adam-conformance-rules:sheet-Rules Catalogue_row-1714",
      "rule_type": "CONFORMANCE_RULE",
      "shard": "adam-conformance-rules.json",
      "source_section_classification": "OPERATIVE_RULE",
      "standard_id": "adam-conformance-rules"
    },
    {
      "citation_status": "RESOLVED",
      "decision": "REMOVE_NON_RELEVANT",
      "normalized_atomic_requirement": "ONTRxxFL is Y but ONTRTFL is not Y",
      "reason": "semantic_duplicate_requirement",
      "rule_id": "adam-conformance-rules:sheet-Rules Catalogue_row-1715",
      "rule_type": "CONFORMANCE_RULE",
      "shard": "adam-conformance-rules.json",
      "source_section_classification": "OPERATIVE_RULE",
      "standard_id": "adam-conformance-rules"
    },
    {
      "citation_status": "RESOLVED",
      "decision": "REMOVE_NON_RELEVANT",
      "normalized_atomic_requirement": "ONTRTwFL is Y but ONTRTFL is not Y",
      "reason": "semantic_duplicate_requirement",
      "rule_id": "adam-conformance-rules:sheet-Rules Catalogue_row-1718",
      "rule_type": "CONFORMANCE_RULE",
      "shard": "adam-conformance-rules.json",
      "source_section_classification": "OPERATIVE_RULE",
      "standard_id": "adam-conformance-rules"
    },
    {
      "citation_status": "RESOLVED",
      "decision": "REMOVE_NON_RELEVANT",
      "normalized_atomic_requirement": "ONTRTwFL is Y but ONTRTFL is not Y",
      "reason": "semantic_duplicate_requirement",
      "rule_id": "adam-conformance-rules:sheet-Rules Catalogue_row-1719",
      "rule_type": "CONFORMANCE_RULE",
      "shard": "adam-conformance-rules.json",
      "source_section_classification": "OPERATIVE_RULE",
      "standard_id": "adam-conformance-rules"
    },
    {
      "citation_status": "RESOLVED",
      "decision": "REMOVE_NON_RELEVANT",
      "normalized_atomic_requirement": "SITEID is not present within ADSL",
      "reason": "semantic_duplicate_requirement",
      "rule_id": "adam-conformance-rules:sheet-Rules Catalogue_row-172",
      "rule_type": "CONFORMANCE_RULE",
      "shard": "adam-conformance-rules.json",
      "source_section_classification": "OPERATIVE_RULE",
      "standard_id": "adam-conformance-rules"
    },
    {
      "citation_status": "RESOLVED",
      "decision": "REMOVE_NON_RELEVANT",
      "normalized_atomic_requirement": "ONTRxxFL is present but ONTRTFL is not present",
      "reason": "semantic_duplicate_requirement",
      "rule_id": "adam-conformance-rules:sheet-Rules Catalogue_row-1722",
      "rule_type": "CONFORMANCE_RULE",
      "shard": "adam-conformance-rules.json",
      "source_section_classification": "OPERATIVE_RULE",
      "standard_id": "adam-conformance-rules"
    },
    {
      "citation_status": "RESOLVED",
      "decision": "REMOVE_NON_RELEVANT",
      "normalized_atomic_requirement": "ONTRxxFL is present but ONTRTFL is not present",
      "reason": "semantic_duplicate_requirement",
      "rule_id": "adam-conformance-rules:sheet-Rules Catalogue_row-1723",
      "rule_type": "CONFORMANCE_RULE",
      "shard": "adam-conformance-rules.json",
      "source_section_classification": "OPERATIVE_RULE",
      "standard_id": "adam-conformance-rules"
    },
    {
      "citation_status": "RESOLVED",
      "decision": "REMOVE_NON_RELEVANT",
      "normalized_atomic_requirement": "ONTRTwFL is present but ONTRTFL is not present",
      "reason": "semantic_duplicate_requirement",
      "rule_id": "adam-conformance-rules:sheet-Rules Catalogue_row-1726",
      "rule_type": "CONFORMANCE_RULE",
      "shard": "adam-conformance-rules.json",
      "source_section_classification": "OPERATIVE_RULE",
      "standard_id": "adam-conformance-rules"
    },
    {
      "citation_status": "RESOLVED",
      "decision": "REMOVE_NON_RELEVANT",
      "normalized_atomic_requirement": "ONTRTwFL is present but ONTRTFL is not present",
      "reason": "semantic_duplicate_requirement",
      "rule_id": "adam-conformance-rules:sheet-Rules Catalogue_row-1727",
      "rule_type": "CONFORMANCE_RULE",
      "shard": "adam-conformance-rules.json",
      "source_section_classification": "OPERATIVE_RULE",
      "standard_id": "adam-conformance-rules"
    },
    {
      "citation_status": "RESOLVED",
      "decision": "REMOVE_NON_RELEVANT",
      "normalized_atomic_requirement": "SITEID is not present within ADSL",
      "reason": "semantic_duplicate_requirement",
      "rule_id": "adam-conformance-rules:sheet-Rules Catalogue_row-173",
      "rule_type": "CONFORMANCE_RULE",
      "shard": "adam-conformance-rules.json",
      "source_section_classification": "OPERATIVE_RULE",
      "standard_id": "adam-conformance-rules"
    },
    {
      "citation_status": "RESOLVED",
      "decision": "REMOVE_NON_RELEVANT",
      "normalized_atomic_requirement": "SRCDOM is present",
      "reason": "semantic_duplicate_requirement",
      "rule_id": "adam-conformance-rules:sheet-Rules Catalogue_row-1730",
      "rule_type": "CONFORMANCE_RULE",
      "shard": "adam-conformance-rules.json",
      "source_section_classification": "OPERATIVE_RULE",
      "standard_id": "adam-conformance-rules"
    },
    {
      "citation_status": "RESOLVED",
      "decision": "REMOVE_NON_RELEVANT",
      "normalized_atomic_requirement": "SRCDOM is present",
      "reason": "semantic_duplicate_requirement",
      "rule_id": "adam-conformance-rules:sheet-Rules Catalogue_row-1731",
      "rule_type": "CONFORMANCE_RULE",
      "shard": "adam-conformance-rules.json",
      "source_section_classification": "OPERATIVE_RULE",
      "standard_id": "adam-conformance-rules"
    },
    {
      "citation_status": "RESOLVED",
      "decision": "REMOVE_NON_RELEVANT",
      "normalized_atomic_requirement": "SRCDOM is present",
      "reason": "semantic_duplicate_requirement",
      "rule_id": "adam-conformance-rules:sheet-Rules Catalogue_row-1732",
      "rule_type": "CONFORMANCE_RULE",
      "shard": "adam-conformance-rules.json",
      "source_section_classification": "OPERATIVE_RULE",
      "standard_id": "adam-conformance-rules"
    },
    {
      "citation_status": "RESOLVED",
      "decision": "REMOVE_NON_RELEVANT",
      "normalized_atomic_requirement": "SRCSEQ is present",
      "reason": "semantic_duplicate_requirement",
      "rule_id": "adam-conformance-rules:sheet-Rules Catalogue_row-1734",
      "rule_type": "CONFORMANCE_RULE",
      "shard": "adam-conformance-rules.json",
